File: data/XRD_raw_spectra/RuIr.csv
6,10302
6.07616,10047
6.15231,10020
6.22847,9770
6.30463,9722
6.38078,9825
6.45694,9987
6.5331,9706
6.60925,9557
6.68541,9445
6.76157,9163
6.83772,9221
6.91388,8724
6.99004,8567
7.0662,8439
7.14235,8555
7.21851,8284
7.29467,8442
7.37082,8346
7.44698,8237
7.52314,8181
7.59929,7980
7.67545,7816
7.75161,7804
7.82776,7775
7.90392,7710
7.98008,7641
8.05623,7597
8.13239,7481
8.20855,7429
8.2847,7472
8.36086,7441
8.43702,7149
8.51317,7056
8.58933,7281
8.66549,7288
8.74164,7107
8.8178,7076
8.89396,6983
8.97012,6955
9.04627,7130
9.12243,6992
9.19859,6976
9.27474,6892
9.3509,6894
9.42706,6874
9.50321,6704
9.57937,6711
9.65553,6640
9.73168,6602
9.80784,6593
9.884,6470
9.96015,6471
10.03631,6407
10.11247,6299
10.18862,6546
10.26478,6309
10.34094,6365
10.41709,6329
10.49325,6065
10.56941,6271
10.64556,6230
10.72172,6072
10.79788,6059
10.87404,5917
10.95019,6003
11.02635,6113
11.10251,5744
11.17866,5706
11.25482,5880
11.33098,5792
11.40713,5738
11.48329,5592
11.55945,5509
11.6356,5545
11.71176,5505
11.78792,5302
11.86407,5368
11.94023,5255
12.01639,5369
12.09254,5322
12.1687,5049
12.24486,5072
12.32101,5127
12.39717,4803
12.47333,4925
12.54948,4845
12.62564,4782
12.7018,4853
12.77796,4683
12.85411,4704
12.93027,4700
13.00643,4656
13.08258,4480
13.15874,4488
13.2349,4458
13.31105,4272
13.38721,4258
13.46337,4273
13.53952,4182
13.61568,4353
13.69184,4147
13.76799,4166
13.84415,4102
13.92031,4113
13.99646,4160
14.07262,4168
14.14878,4051
14.22493,4191
14.30109,3967
14.37725,4078
14.4534,4042
14.52956,3950
14.60572,3916
14.68188,3955
14.75803,3861
14.83419,4022
14.91035,3936
14.9865,3916
15.06266,3882
15.13882,3829
15.21497,3887
15.29113,3749
15.36729,3849
15.44344,3789
15.5196,3871
15.59576,3824
15.67191,3824
15.74807,3766
15.82423,3759
15.90038,3924
15.97654,3787
16.0527,3669
16.12885,3778
16.20501,3829
16.28117,3773
16.35732,3792
16.43348,3647
16.50964,3629
16.5858,3707
16.66195,3662
16.73811,3698
16.81427,3666
16.89042,3642
16.96658,3521
17.04274,3647
17.11889,3702
17.19505,3709
17.27121,3575
17.34736,3650
17.42352,3604
17.49968,3587
17.57583,3500
17.65199,3541
17.72815,3430
17.8043,3562
17.88046,3553
17.95662,3460
18.03277,3628
18.10893,3575
18.18509,3469
18.26124,3468
18.3374,3535
18.41356,3418
18.48972,3491
18.56587,3504
18.64203,3342
18.71819,3442
18.79434,3363
18.8705,3441
18.94666,3365
19.02281,3365
19.09897,3481
19.17513,3359
19.25128,3483
19.32744,3404
19.4036,3348
19.47975,3308
19.55591,3330
19.63207,3336
19.70822,3343
19.78438,3429
19.86054,3341
19.93669,3431
20.01285,3317
20.08901,3273
20.16516,3352
20.24132,3256
20.31748,3249
20.39364,3271
20.46979,3366
20.54595,3210
20.62211,3310
20.69826,3280
20.77442,3314
20.85058,3204
20.92673,3292
21.00289,3274
21.07905,3167
21.1552,3318
21.23136,3275
21.30752,3269
21.38367,3230
21.45983,3149
21.53599,3205
21.61214,3208
21.6883,3193
21.76446,3297
21.84061,3274
21.91677,3207
21.99293,3214
22.06908,3224
22.14524,3107
22.2214,3212
22.29756,3183
22.37371,3162
22.44987,3109
22.52603,3197
22.60218,3115
22.67834,3178
22.7545,3165
22.83065,3118
22.90681,3106
22.98297,3167
23.05912,3259
23.13528,3094
23.21144,3134
23.28759,3042
23.36375,3223
23.43991,3044
23.51606,3128
23.59222,3049
23.66838,3025
23.74453,3078
23.82069,2965
23.89685,3120
23.973,3026
24.04916,3081
24.12532,3000
24.20148,3124
24.27763,3043
24.35379,3005
24.42995,2973
24.5061,3054
24.58226,3118
24.65842,3078
24.73457,2981
24.81073,2985
24.88689,2930
24.96304,3066
25.0392,2966
25.11536,2957
25.19151,2931
25.26767,2987
25.34383,3006
25.41998,2979
25.49614,2991
25.5723,3047
25.64845,2962
25.72461,2967
25.80077,3029
25.87692,3043
25.95308,2935
26.02924,3017
26.1054,2839
26.18155,2948
26.25771,2943
26.33387,2936
26.41002,2914
26.48618,2938
26.56234,2899
26.63849,2970
26.71465,2879
26.79081,2876
26.86696,2920
26.94312,2865
27.01928,2933
27.09543,2945
27.17159,3056
27.24775,2954
27.3239,2940
27.40006,2911
27.47622,2949
27.55237,2894
27.62853,2970
27.70469,3017
27.78084,2887
27.857,2939
27.93316,2954
28.00932,2941
28.08547,2900
28.16163,3007
28.23779,3076
28.31394,2910
28.3901,2935
28.46626,2905
28.54241,2958
28.61857,2832
28.69473,2905
28.77088,2888
28.84704,2913
28.9232,2932
28.99935,2879
29.07551,2825
29.15167,2944
29.22782,2953
29.30398,2875
29.38014,2885
29.45629,2881
29.53245,2858
29.60861,2814
29.68476,2927
29.76092,2901
29.83708,2778
29.91324,2876
29.98939,2790
30.06555,2807
30.14171,2951
30.21786,2813
30.29402,2865
30.37018,2871
30.44633,3011
30.52249,2889
30.59865,2843
30.6748,2830
30.75096,2882
30.82712,2800
30.90327,2933
30.97943,2922
31.05559,2906
31.13174,2837
31.2079,2901
31.28406,2964
31.36021,2838
31.43637,3022
31.51253,3130
31.58868,3172
31.66484,3087
31.741,2862
31.81716,2853
31.89331,2765
31.96947,2932
32.04563,2803
32.12178,2773
32.19794,2950
32.2741,2844
32.35025,2730
32.42641,2823
32.50257,2831
32.57872,2837
32.65488,2838
32.73104,2787
32.80719,2873
32.88335,2834
32.95951,2796
33.03566,2831
33.11182,2867
33.18798,2792
33.26413,2838
33.34029,2937
33.41645,2799
33.4926,2706
33.56876,2678
33.64492,2874
33.72108,2763
33.79723,2821
33.87339,2783
33.94955,2925
34.0257,2746
34.10186,2746
34.17802,2854
34.25417,2866
34.33033,2856
34.40649,2800
34.48264,2785
34.5588,2870
34.63496,2791
34.71111,2804
34.78727,2871
34.86343,2814
34.93958,2904
35.01574,2866
35.0919,2848
35.16805,2856
35.24421,2836
35.32037,2921
35.39652,2860
35.47268,3005
35.54884,2872
35.625,2885
35.70115,2915
35.77731,2921
35.85347,2917
35.92962,2933
36.00578,2988
36.08194,2890
36.15809,3005
36.23425,3016
36.31041,2961
36.38656,2889
36.46272,2930
36.53888,2924
36.61503,2998
36.69119,3080
36.76735,3127
36.8435,3221
36.91966,3103
36.99582,3314
37.07197,3253
37.14813,3318
37.22429,3342
37.30044,3491
37.3766,3542
37.45276,3788
37.52892,3874
37.60507,4269
37.68123,4863
37.75739,5548
37.83354,6674
37.9097,8878
37.98586,12335
38.06201,16972
38.13817,20933
38.21433,21536
38.29048,18473
38.36664,14054
38.4428,9986
38.51895,7390
38.59511,5869
38.67127,4915
38.74742,4624
38.82358,4119
38.89974,3927
38.97589,3679
39.05205,3702
39.12821,3690
39.20436,3628
39.28052,3496
39.35668,3684
39.43284,3459
39.50899,3534
39.58515,3558
39.66131,3338
39.73746,3382
39.81362,3331
39.88978,3350
39.96593,3295
40.04209,3268
40.11825,3300
40.1944,3414
40.27056,3461
40.34672,3592
40.42287,3469
40.49903,3641
40.57519,3521
40.65134,3625
40.7275,3854
40.80366,3793
40.87981,3710
40.95597,4025
41.03213,4105
41.10828,4353
41.18444,4540
41.2606,4822
41.33676,5278
41.41291,6116
41.48907,7370
41.56523,9106
41.64138,12128
41.71754,16157
41.7937,20563
41.86985,23253
41.94601,22726
42.02217,19067
42.09832,14787
42.17448,11121
42.25064,9158
42.32679,7493
42.40295,6908
42.47911,6448
42.55526,6390
42.63142,6307
42.70758,6229
42.78373,6639
42.85989,6959
42.93605,7254
43.0122,8008
43.08836,8728
43.16452,9958
43.24068,11998
43.31683,15009
43.39299,19804
43.46915,26951
43.5453,38501
43.62146,54871
43.69762,72660
43.77377,83380
43.84993,79480
43.92609,63493
44.00224,45840
44.0784,30904
44.15456,21445
44.23071,15518
44.30687,11854
44.38303,9638
44.45918,8351
44.53534,7357
44.6115,6634
44.68765,6036
44.76381,5450
44.83997,5202
44.91612,4961
44.99228,4843
45.06844,4621
45.1446,4445
45.22075,4371
45.29691,4396
45.37307,4415
45.44922,4166
45.52538,3978
45.60154,3940
45.67769,3765
45.75385,3779
45.83001,3656
45.90616,3652
45.98232,3629
46.05848,3483
46.13463,3488
46.21079,3568
46.28695,3429
46.3631,3444
46.43926,3418
46.51542,3320
46.59157,3359
46.66773,3360
46.74389,3297
46.82004,3342
46.8962,3350
46.97236,3244
47.04852,3284
47.12467,3279
47.20083,3199
47.27699,3266
47.35314,3227
47.4293,3276
47.50546,3207
47.58161,3258
47.65777,3161
47.73393,3141
47.81008,3146
47.88624,3163
47.9624,3127
48.03855,3050
48.11471,3049
48.19087,3075
48.26702,3139
48.34318,3201
48.41934,3106
48.49549,3055
48.57165,3117
48.64781,3011
48.72396,3135
48.80012,3006
48.87628,3090
48.95244,3030
49.02859,3114
49.10475,2976
49.18091,3145
49.25706,2959
49.33322,2907
49.40938,3088
49.48553,2945
49.56169,3050
49.63785,3026
49.714,2985
49.79016,2887
49.86632,3132
49.94247,2993
50.01863,2923
50.09479,2992
50.17094,2938
50.2471,2866
50.32326,3094
50.39941,3029
50.47557,2981
50.55173,2978
50.62788,2902
50.70404,3002
50.7802,2948
50.85636,2970
50.93251,2889
51.00867,3002
51.08483,2945
51.16098,3040
51.23714,3022
51.3133,2968
51.38945,2956
51.46561,3119
51.54177,2955
51.61792,2862
51.69408,2949
51.77024,2850
51.84639,2975
51.92255,2955
51.99871,2930
52.07486,2869
52.15102,2984
52.22718,2923
52.30333,2965
52.37949,2946
52.45565,3002
52.5318,2992
52.60796,2910
52.68412,2889
52.76028,2901
52.83643,2891
52.91259,2951
52.98875,3010
53.0649,2936
53.14106,2958
53.21722,2925
53.29337,3001
53.36953,2857
53.44569,2892
53.52184,2880
53.598,2879
53.67416,3028
53.75031,2959
53.82647,2978
53.90263,2869
53.97878,2922
54.05494,2931
54.1311,2848
54.20725,2955
54.28341,3054
54.35957,2952
54.43572,2975
54.51188,2991
54.58804,2933
54.6642,3025
54.74035,3054
54.81651,3014
54.89267,2921
54.96882,3076
55.04498,2983
55.12114,3025
55.19729,2993
55.27345,3027
55.34961,3023
55.42576,3005
55.50192,3126
55.57808,3011
55.65423,3084
55.73039,3176
55.80655,3283
55.8827,3363
55.95886,3313
56.03502,3334
56.11117,3465
56.18733,3314
56.26349,3419
56.33964,3487
56.4158,3519
56.49196,3360
56.56812,3449
56.64427,3458
56.72043,3488
56.79659,3575
56.87274,3591
56.9489,3659
57.02506,3849
57.10121,3888
57.17737,3942
57.25353,4191
57.32968,4441
57.40584,4642
57.482,5067
57.55815,5565
57.63431,6420
57.71047,7388
57.78662,8915
57.86278,10634
57.93894,12486
58.01509,13736
58.09125,14031
58.16741,13044
58.24356,11409
58.31972,9307
58.39588,7785
58.47204,6483
58.54819,5574
58.62435,5056
58.70051,4667
58.77666,4334
58.85282,4073
58.92898,4065
59.00513,3917
59.08129,3793
59.15745,3661
59.2336,3618
59.30976,3573
59.38592,3553
59.46207,3634
59.53823,3590
59.61439,3514
59.69054,3469
59.7667,3339
59.84286,3444
59.91901,3487
59.99517,3435
60.07133,3498
60.14748,3358
60.22364,3389
60.2998,3388
60.37596,3341
60.45211,3343
60.52827,3477
60.60443,3341
60.68058,3400
60.75674,3499
60.8329,3348
60.90905,3381
60.98521,3349
61.06137,3325
61.13752,3596
61.21368,3412
61.28984,3418
61.36599,3398
61.44215,3383
61.51831,3453
61.59446,3420
61.67062,3434
61.74678,3489
61.82293,3369
61.89909,3406
61.97525,3391
62.0514,3367
62.12756,3307
62.20372,3538
62.27988,3403
62.35603,3410
62.43219,3427
62.50835,3300
62.5845,3349
62.66066,3303
62.73682,3394
62.81297,3366
62.88913,3371
62.96529,3380
63.04144,3346
63.1176,3421
63.19376,3411
63.26991,3364
63.34607,3426
63.42223,3503
63.49838,3447
63.57454,3381
63.6507,3410
63.72685,3365
63.80301,3329
63.87917,3423
63.95532,3381
64.03148,3470
64.10764,3337
64.1838,3289
64.25995,3361
64.33611,3309
64.41227,3292
64.48842,3332
64.56458,3140
64.64074,3394
64.71689,3231
64.79305,3264
64.86921,3342
64.94536,3224
65.02152,3284
65.09768,3357
65.17383,3189
65.24999,3254
65.32615,3240
65.4023,3169
65.47846,3227
65.55462,3336
65.63077,3256
65.70693,3341
65.78309,3205
65.85924,3165
65.9354,3308
66.01156,3390
66.08772,3269
66.16387,3321
66.24003,3328
66.31619,3332
66.39234,3275
66.4685,3398
66.54466,3350
66.62081,3465
66.69697,3288
66.77313,3451
66.84928,3394
66.92544,3399
67.0016,3400
67.07775,3363
67.15391,3371
67.23007,3422
67.30622,3480
67.38238,3436
67.45854,3470
67.53469,3429
67.61085,3402
67.68701,3513
67.76316,3521
67.83932,3597
67.91548,3595
67.99164,3698
68.06779,3807
68.14395,3841
68.22011,4056
68.29626,4033
68.37242,4138
68.44858,4571
68.52473,4876
68.60089,5324
68.67705,6160
68.7532,7217
68.82936,8803
68.90552,11423
68.98167,14359
69.05783,17769
69.13399,19716
69.21014,20208
69.2863,18243
69.36246,15797
69.43861,12622
69.51477,9950
69.59093,7911
69.66708,6323
69.74324,5585
69.8194,4741
69.89556,4566
69.97171,4238
70.04787,4009
70.12403,3820
70.20018,3742
70.27634,3583
70.3525,3572
70.42865,3578
70.50481,3424
70.58097,3465
70.65712,3458
70.73328,3503
70.80944,3390
70.88559,3459
70.96175,3347
71.03791,3465
71.11406,3333
71.19022,3227
71.26638,3248
71.34253,3245
71.41869,3279
71.49485,3223
71.571,3103
71.64716,3292
71.72332,3160
71.79948,3248
71.87563,3353
71.95179,3325
72.02795,3280
72.1041,3222
72.18026,3274
72.25642,3180
72.33257,3230
72.40873,3261
72.48489,3140
72.56104,3103
72.6372,3296
72.71336,3331
72.78951,3179
72.86567,3289
72.94183,3184
73.01798,3261
73.09414,3261
73.1703,3263
73.24645,3238
73.32261,3186
73.39877,3205
73.47492,3203
73.55108,3288
73.62724,3144
73.7034,3128
73.77955,3227
73.85571,3133
73.93187,3170
74.00802,3158
74.08418,3268
74.16034,3128
74.23649,3267
74.31265,3256
74.38881,3337
74.46496,3193
74.54112,3370
74.61728,3308
74.69343,3351
74.76959,3395
74.84575,3302
74.9219,3358
74.99806,3399
75.07422,3344
75.15037,3407
75.22653,3407
75.30269,3433
75.37884,3460
75.455,3439
75.53116,3444
75.60732,3422
75.68347,3527
75.75963,3501
75.83579,3543
75.91194,3473
75.9881,3511
76.06426,3594
76.14041,3495
76.21657,3600
76.29273,3509
76.36888,3596
76.44504,3716
76.5212,3681
76.59735,3746
76.67351,3849
76.74967,3892
76.82582,4012
76.90198,4108
76.97814,4197
77.05429,4432
77.13045,4684
77.20661,4999
77.28276,5294
77.35892,5736
77.43508,6412
77.51124,7358
77.58739,8599
77.66355,10163
77.73971,12181
77.81586,14679
77.89202,17123
77.96818,18532
78.04433,18967
78.12049,18083
78.19665,16395
78.2728,13812
78.34896,11890
78.42512,10011
78.50127,8178
78.57743,7108
78.65359,6032
78.72974,5281
78.8059,4892
78.88206,4722
78.95821,4411
79.03437,4340
79.11053,4240
79.18668,4006
79.26284,3998
79.339,3943
79.41516,3847
79.49131,3703
79.56747,3688
79.64363,3723
79.71978,3679
79.79594,3662
79.8721,3591
79.94825,3553
80.02441,3617
80.10057,3485
80.17672,3619
80.25288,3507
80.32904,3629
80.40519,3551
80.48135,3652
80.55751,3707
80.63366,3525
80.70982,3652
80.78598,3644
80.86213,3636
80.93829,3692
81.01445,3749
81.0906,3797
81.16676,3720
81.24292,3912
81.31908,3865
81.39523,4079
81.47139,4162
81.54755,4198
81.6237,4724
81.69986,5059
81.77602,5573
81.85217,5909
81.92833,6368
82.00449,6304
82.08064,5994
82.1568,5870
82.23296,5570
82.30911,5202
82.38527,4670
82.46143,4404
82.53758,4322
82.61374,4110
82.6899,4115
82.76605,4277
82.84221,4134
82.91837,4206
82.99452,4102
83.07068,4253
83.14684,4307
83.223,4618
83.29915,4545
83.37531,4623
83.45147,4937
83.52762,5265
83.60378,5552
83.67994,6073
83.75609,6760
83.83225,7609
83.90841,9032
83.98456,10730
84.06072,13543
84.13688,16572
84.21303,19621
84.28919,22091
84.36535,23016
84.4415,22370
84.51766,20458
84.59382,18430
84.66997,15730
84.74613,13138
84.82229,11300
84.89844,9458
84.9746,8546
85.05076,8130
85.12692,8255
85.20307,8628
85.27923,9550
85.35539,11195
85.43154,13300
85.5077,15604
85.58386,17155
85.66001,17648
85.73617,17069
85.81233,15820
85.88848,14012
85.96464,12267
86.0408,10257
86.11695,8649
86.19311,7165
86.26927,6185
86.34542,5525
86.42158,5175
86.49774,4589
86.57389,4391
86.65005,4131
86.72621,4052
86.80236,3987
86.87852,3986
86.95468,3808
87.03084,3723
87.10699,3677
87.18315,3671
87.25931,3664
87.33546,3637
87.41162,3489
87.48778,3563
87.56393,3373
87.64009,3516
87.71625,3443
87.7924,3486
87.86856,3350
87.94472,3359
88.02087,3343
88.09703,3388
88.17319,3337
88.24934,3287
88.3255,3317
88.40166,3369
88.47781,3293
88.55397,3400
88.63013,3230
88.70628,3238
88.78244,3296
88.8586,3171
88.93476,3169
89.01091,3330
89.08707,3183
89.16323,3272
89.23938,3168
89.31554,3268
89.3917,3074
89.46785,3185
89.54401,3146
89.62017,3150
89.69632,3136
89.77248,3216
89.84864,3141
89.92479,3238
89.96287,3295