File: data/XRD_raw_spectra/RuPtPdIr 15-09-22.csv
6,7987,0.420435
6.076169,7884,0.415013
6.152338,7638,0.402063
6.228507,7631,0.401695
6.304676,7567,0.398326
6.380845,7599,0.400011
6.457014,7598,0.399958
6.533183,7448,0.392062
6.609352,7526,0.396168
6.685521,7398,0.38943
6.76169,7224,0.380271
6.837859,6822,0.359109
6.914028,6767,0.356214
6.990197,6658,0.350476
7.066366,6496,0.341949
7.142535,6688,0.352056
7.218704,6490,0.341633
7.294873,6180,0.325315
7.371042,6182,0.32542
7.447211,6205,0.326631
7.52338,6112,0.321735
7.599549,6148,0.32363
7.675718,5999,0.315787
7.751887,5835,0.307154
7.828056,5900,0.310575
7.904225,5745,0.302416
7.980394,5789,0.304732
8.056563,5830,0.306891
8.132732,5631,0.296415
8.208901,5636,0.296678
8.28507,5526,0.290888
8.361239,5595,0.29452
8.437408,5511,0.290098
8.513577,5328,0.280465
8.589746,5476,0.288256
8.665915,5325,0.280307
8.742084,5336,0.280886
8.818253,5253,0.276517
8.894422,5465,0.287677
8.970591,5215,0.274517
9.04676,5123,0.269674
9.122929,5184,0.272885
9.199098,5117,0.269358
9.275267,5200,0.273727
9.351436,5019,0.2642
9.427605,5057,0.2662
9.503774,4902,0.258041
9.579943,5041,0.265358
9.656112,4922,0.259094
9.732281,4813,0.253356
9.80845,4937,0.259883
9.884619,4750,0.250039
9.960788,4771,0.251145
10.037,4714,0.248144
10.1131,4732,0.249092
10.1893,4731,0.249039
10.2655,4569,0.240512
10.3416,4509,0.237353
10.4178,4630,0.243723
10.494,4590,0.241617
10.57014,4457,0.234616
10.6463,4535,0.238722
10.7225,4482,0.235932
10.7986,4359,0.229457
10.8748,4316,0.227194
10.951,4223,0.222298
11.0272,4327,0.227773
11.1033,4095,0.21556
11.1795,4222,0.222246
11.2557,4235,0.22293
11.33183,4137,0.217771
11.408,4131,0.217455
11.4842,3949,0.207875
11.5603,4033,0.212297
11.6365,4077,0.214613
11.7127,3950,0.207928
11.7888,3868,0.203611
11.865,3891,0.204822
11.9412,3828,0.201506
12.0174,3875,0.20398
12.09352,3753,0.197558
12.1697,3764,0.198137
12.2459,3761,0.197979
12.322,3541,0.186398
12.3982,3596,0.189293
12.4744,3514,0.184977
12.5505,3581,0.188503
12.6267,3407,0.179344
12.7029,3385,0.178186
12.779,3457,0.181976
12.85521,3449,0.181555
12.9314,3275,0.172396
13.0075,3328,0.175186
13.0837,3240,0.170553
13.1599,3210,0.168974
13.2361,3118,0.164131
13.3122,3142,0.165395
13.3884,3212,0.169079
13.4646,3138,0.165184
13.5407,3027,0.159341
13.6169,2998,0.157814
13.6931,3040,0.160025
13.7692,3059,0.161025
13.8454,3123,0.164394
13.9216,2914,0.153393
13.9977,3055,0.160815
14.0739,2993,0.157551
14.1501,3061,0.161131
14.2263,2970,0.15634
14.3024,2909,0.153129
14.37859,2998,0.157814
14.4548,3036,0.159815
14.5309,2912,0.153287
14.6071,2819,0.148392
14.6833,2877,0.151445
14.7594,2908,0.153077
14.8356,2870,0.151076
14.9118,2846,0.149813
14.9879,2984,0.157077
15.0641,2923,0.1538664
15.14028,2767,0.145655
15.2164,2850,0.150024
15.2926,2773,0.14597
15.3688,2846,0.149813
15.445,2924,0.153919
15.5211,2762,0.145391
15.5973,2846,0.149813
15.6735,2825,0.148708
15.7496,2836,0.149287
15.8258,2799,0.147339
15.90197,2929,0.154182
15.9781,2865,0.150813
16.0543,2812,0.148023
16.1305,2861,0.150603
16.2066,2855,0.150287
16.2828,2867,0.150919
16.359,2864,0.150761
16.4352,2872,0.151182
16.5113,2770,0.145812
16.5875,2748,0.144654
16.66366,2776,0.146128
16.7398,2784,0.146549
16.816,2859,0.150497
16.8922,2760,0.145286
16.9683,2754,0.14497
17.0445,2761,0.145339
17.1207,2781,0.146392
17.1968,2724,0.143391
17.273,2719,0.143128
17.3492,2642,0.139075
17.42535,2749,0.144707
17.5015,2770,0.145812
17.5777,2687,0.141443
17.6539,2707,0.142496
17.73,2705,0.142391
17.8062,2741,0.144286
17.8824,2695,0.141865
17.9585,2725,0.143444
18.0347,2684,0.141285
18.1109,2692,0.141707
18.18704,2786,0.146655
18.2632,2700,0.142128
18.3394,2696,0.141917
18.4155,2683,0.141233
18.4917,2706,0.142444
18.5679,2650,0.139496
18.6441,2664,0.140233
18.7202,2684,0.141285
18.7964,2722,0.143286
18.8726,2596,0.136653
18.94873,2592,0.136443
19.0249,2682,0.14118
19.1011,2693,0.141759
19.1772,2746,0.144549
19.2534,2651,0.139548
19.3296,2591,0.13639
19.4057,2650,0.139496
19.4819,2607,0.137232
19.5581,2648,0.13939
19.6343,2698,0.142022
19.71042,2630,0.138443
19.7866,2632,0.138548
19.8628,2604,0.137074
19.9389,2598,0.136758
20.0151,2595,0.136601
20.0913,2610,0.13739
20.1674,2577,0.135653
20.2436,2626,0.138232
20.3198,2604,0.137074
20.3959,2612,0.137495
20.47211,2604,0.137074
20.5483,2550,0.134232
20.6244,2602,0.136969
20.7006,2582,0.135916
20.7768,2571,0.135337
20.853,2625,0.13818
20.9291,2461,0.129547
21.0053,2622,0.138022
21.0815,2520,0.132653
21.1576,2543,0.133863
21.2338,2561,0.134811
21.31,2570,0.135285
21.3861,2578,0.135706
21.4623,2522,0.132758
21.5385,2593,0.136495
21.6146,2678,0.14097
21.6908,2606,0.13718
21.767,2542,0.133811
21.8432,2529,0.133126
21.9193,2523,0.13281
21.99549,2638,0.138864
22.0717,2641,0.139022
22.1478,2577,0.135653
22.224,2640,0.138969
22.3002,2550,0.134232
22.3763,2559,0.134705
22.4525,2431,0.127968
22.5287,2507,0.131968
22.6048,2555,0.134495
22.681,2589,0.136285
22.75718,2551,0.134284
22.8333,2472,0.130126
22.9095,2427,0.127757
22.9857,2482,0.130652
23.0619,2449,0.128915
23.138,2486,0.130863
23.2142,2393,0.125967
23.2904,2460,0.129494
23.3665,2355,0.123967
23.4427,2470,0.130021
23.51887,2552,0.134337
23.595,2578,0.135706
23.6712,2429,0.127862
23.7474,2511,0.132179
23.8235,2445,0.128705
23.8997,2483,0.130705
23.9759,2477,0.130389
24.0521,2424,0.127599
24.1282,2447,0.12881
24.2044,2311,0.121651
24.28056,2431,0.127968
24.3567,2404,0.126546
24.4329,2425,0.127652
24.5091,2451,0.12902
24.5852,2502,0.131705
24.6614,2470,0.130021
24.7376,2439,0.128389
24.8137,2384,0.125493
24.8899,2422,0.127494
24.9661,2468,0.129915
25.04225,2416,0.127178
25.1184,2474,0.130231
25.1946,2517,0.132495
25.2708,2384,0.125493
25.3469,2370,0.124757
25.4231,2428,0.12781
25.4993,2391,0.125862
25.5754,2374,0.124967
25.6516,2461,0.129547
25.7278,2377,0.125125
25.80394,2392,0.125915
25.8801,2365,0.124493
25.9563,2446,0.128757
26.0324,2337,0.123019
26.1086,2442,0.128547
26.1848,2350,0.123704
26.261,2421,0.127441
26.3371,2432,0.12802
26.4133,2449,0.128915
26.4895,2412,0.126967
26.56563,2410,0.126862
26.6418,2458,0.129389
26.718,2462,0.129599
26.7941,2513,0.132284
26.8703,2410,0.126862
26.9465,2493,0.131231
27.0226,2508,0.132021
27.0988,2443,0.128599
27.175,2391,0.125862
27.2512,2388,0.125704
27.32732,2471,0.130073
27.4035,2346,0.123493
27.4797,2376,0.125072
27.5558,2396,0.126125
27.632,2464,0.129705
27.7082,2497,0.131442
27.7843,2436,0.128231
27.8605,2415,0.127125
27.9367,2467,0.129863
28.0128,2392,0.125915
28.08901,2515,0.132389
28.1652,2482,0.130652
28.2413,2512,0.132231
28.3175,2355,0.123967
28.3937,2492,0.131179
28.4699,2426,0.127704
28.546,2412,0.126967
28.6222,2423,0.127546
28.6984,2459,0.129441
28.7745,2543,0.133863
28.8507,2495,0.131337
28.9269,2397,0.126178
29.003,2692,0.141707
29.0792,2716,0.14297
29.1554,2625,0.13818
29.2315,2502,0.131705
29.3077,2490,0.131073
29.3839,2572,0.13539
29.4601,2448,0.128862
29.5362,2439,0.128389
29.61239,2436,0.128231
29.6886,2461,0.129547
29.7647,2466,0.12981
29.8409,2415,0.127125
29.9171,2413,0.12702
29.9932,2364,0.124441
30.0694,2497,0.131442
30.1456,2415,0.127125
30.2217,2510,0.132126
30.2979,2513,0.132284
30.37408,2521,0.132705
30.4502,2518,0.132547
30.5264,2502,0.131705
30.6026,2429,0.127862
30.6788,2425,0.127652
30.7549,2514,0.132337
30.8311,2454,0.129178
30.9073,2490,0.131073
30.9834,2465,0.129757
31.0596,2431,0.127968
31.13577,2493,0.131231
31.2119,2477,0.130389
31.2881,2559,0.134705
31.3643,2627,0.138285
31.4404,2434,0.128125
31.5166,2483,0.130705
31.5928,2502,0.131705
31.669,2491,0.131126
31.7451,2516,0.132442
31.8213,2560,0.134758
31.89746,2458,0.129389
31.9736,2547,0.134074
32.0498,2483,0.130705
32.126,2614,0.137601
32.2021,2532,0.133284
32.2783,2690,0.141601
32.3545,2556,0.134548
32.4306,2532,0.133284
32.5068,2592,0.136443
32.583,2572,0.13539
32.65915,2566,0.135074
32.7353,2598,0.136758
32.8115,2629,0.13839
32.8877,2649,0.139443
32.9638,2566,0.135074
33.04,2682,0.14118
33.1162,2622,0.138022
33.1923,2736,0.144023
33.2685,2584,0.136021
33.3447,2551,0.134284
33.42084,2631,0.138496
33.497,2662,0.140127
33.5732,2643,0.139127
33.6493,2575,0.135548
33.7255,2692,0.141707
33.8017,2746,0.144549
33.8779,2523,0.13281
33.954,2740,0.1442333
34.0302,2670,0.140549
34.1064,2754,0.14497
34.18253,2760,0.145286
34.2587,2669,0.140496
34.3349,2733,0.143865
34.411,2841,0.14955
34.4872,2834,0.149181
34.5634,2802,0.147497
34.6395,2696,0.141917
34.7157,2785,0.146602
34.7919,2852,0.150129
34.8681,2832,0.149076
34.94422,2843,0.149655
35.0204,2954,0.155498
35.0966,2910,0.153182
35.1727,2896,0.152445
35.2489,2872,0.151182
35.3251,2957,0.155656
35.4012,2978,0.156762
35.4774,2982,0.156972
35.5536,2911,0.153235
35.6297,2930,0.154235
35.70591,3190,0.167921
35.7821,3042,0.160131
35.8582,3069,0.161552
35.9344,3219,0.169448
36.0106,3178,0.16729
36.0868,3250,0.17108
36.1629,3248,0.170974
36.2391,3158,0.166237
36.3153,3309,0.174185
36.3914,3290,0.173185
36.4676,3310,0.174238
36.5438,3377,0.177765
36.6199,3428,0.18045
36.6961,3588,0.188872
36.7723,3588,0.188872
36.8484,3663,0.19282
36.9246,3671,0.193241
37.0008,3744,0.197084
37.077,3789,0.199453
37.1531,3905,0.205559
37.22929,4064,0.213929
37.3055,4198,0.220982
37.3816,4213,0.221772
37.4578,4384,0.230773
37.534,4672,0.245934
37.6101,4733,0.249145
37.6863,4916,0.258778
37.7625,5023,0.26441
37.8386,5147,0.270938
37.9148,5339,0.281044
37.99098,5503,0.289677
38.0671,5885,0.309786
38.1433,6022,0.316997
38.2195,6205,0.326631
38.2957,6368,0.335211
38.3718,6558,0.345212
38.448,6734,0.354477
38.5242,6580,0.34637
38.6003,7060,0.371638
38.6765,7322,0.385429
38.75267,7497,0.394641
38.8288,7823,0.411802
38.905,8181,0.430647
38.9812,8408,0.442596
39.0573,8669,0.456335
39.1335,9470,0.4985
39.2097,9592,0.504922
39.2859,10221,0.538032
39.362,10614,0.55872
39.4382,11316,0.595673
39.51436,12051,0.634363
39.5905,12926,0.680423
39.6667,14040,0.739064
39.7429,15052,0.792336
39.819,16400,0.863294
39.8952,17372,0.91446
39.9714,18046,0.949939
40.0475,18530,0.975417
40.1237,18995,0.999895
40.1999,18813,0.990314
40.27605,18588,0.97847
40.3522,18151,0.955467
40.4284,17820,0.938043
40.5046,17628,0.927936
40.5807,17336,0.912565
40.6569,16975,0.893562
40.7331,16664,0.877191
40.8092,16249,0.855346
40.8854,15940,0.83908
40.9616,15568,0.819498
41.03774,15148,0.797389
41.1139,14781,0.77807
41.1901,14216,0.748329
41.2662,14147,0.744697
41.3424,13676,0.719903
41.4186,13264,0.698216
41.4948,12749,0.671106
41.5709,12472,0.656525
41.6471,11766,0.619361
41.7233,11715,0.616676
41.79943,11255,0.592462
41.8756,10947,0.576249
41.9518,10682,0.562299
42.0279,10253,0.539717
42.1041,10151,0.534348
42.1803,9708,0.511028
42.2564,9394,0.494499
42.3326,9331,0.491183
42.4088,9045,0.476128
42.485,9137,0.480971
42.56112,8842,0.465442
42.6373,8848,0.465758
42.7135,8775,0.461915
42.7896,8597,0.452545
42.8658,8710,0.458493
42.942,8486,0.446702
43.0181,8492,0.447018
43.0943,8435,0.444017
43.1705,8520,0.448492
43.2466,8528,0.448913
43.32281,8645,0.455072
43.399,8530,0.449018
43.4751,8639,0.454756
43.5513,8627,0.454124
43.6275,8646,0.455124
43.7037,8517,0.448334
43.7798,8457,0.445176
43.856,8346,0.439333
43.9322,8199,0.431594
44.0083,8195,0.431384
44.0845,7978,0.419961
44.1607,7813,0.411275
44.2368,7812,0.411223
44.313,7685,0.404538
44.3892,7431,0.391167
44.4653,7533,0.396536
44.5415,7273,0.38285
44.6177,7336,0.386166
44.6939,7391,0.389061
44.77,7301,0.384324
44.84619,7418,0.390483
44.9224,7238,0.381008
44.9985,7322,0.385429
45.0747,7278,0.383113
45.1509,7410,0.390062
45.227,7458,0.392588
45.3032,7544,0.397115
45.3794,7477,0.393588
45.4555,7659,0.403169
45.5317,7646,0.402485
45.60788,7759,0.408433
45.684,7967,0.419382
45.7602,8003,0.421277
45.8364,8183,0.430752
45.9126,8267,0.435174
45.9887,8390,0.441649
46.0649,8675,0.456651
46.1411,9120,0.480076
46.2172,9184,0.483445
46.2934,9474,0.49871
46.36957,9813,0.516555
46.4457,10115,0.532452
46.5219,10268,0.540506
46.5981,10067,0.529926
46.6742,9998,0.526294
46.7504,9946,0.523556
46.8266,9713,0.511291
46.9028,9444,0.497131
46.9789,9069,0.477391
47.0551,8791,0.462757
47.13126,8403,0.442333
47.2074,8124,0.427646
47.2836,8002,0.421224
47.3598,7731,0.406959
47.4359,7599,0.400011
47.5121,7271,0.382745
47.5883,6940,0.365321
47.6644,6778,0.356793
47.7406,6594,0.347107
47.8168,6362,0.334895
47.89295,6271,0.330105
47.9691,6016,0.316682
48.0453,5945,0.312944
48.1215,5855,0.308207
48.1976,5693,0.299679
48.2738,5544,0.291836
48.35,5328,0.280465
48.4261,5247,0.276202
48.5023,4996,0.262989
48.5785,5028,0.264673
48.65464,4815,0.253461
48.7308,4754,0.25025
48.807,4670,0.245828
48.8831,4596,0.241933
48.9593,4470,0.2353
49.0355,4317,0.227246
49.1117,4266,0.224562
49.1878,4151,0.218508
49.264,4152,0.218561
49.3402,4060,0.213718
49.41633,3984,0.209717
49.4925,3909,0.205769
49.5687,3900,0.205296
49.6448,3878,0.204137
49.721,3842,0.202242
49.7972,3721,0.195873
49.8733,3735,0.19661
49.9495,3715,0.195557
50.0257,3643,0.191767
50.1019,3509,0.184713
50.17802,3605,0.189767
50.2542,3521,0.185345
50.3304,3548,0.186766
50.4065,3399,0.178923
50.4827,3372,0.177502
50.5589,3455,0.181871
50.635,3237,0.170395
50.7112,3360,0.17687
50.7874,3415,0.179765
50.8635,3262,0.171711
50.93971,3195,0.168184
51.0159,3251,0.171132
51.092,3162,0.166447
51.1682,3226,0.169816
51.2444,3209,0.168921
51.3206,3181,0.167447
51.3967,3156,0.166131
51.4729,3200,0.168448
51.5491,3086,0.162447
51.6252,3169,0.166816
51.7014,3116,0.164026
51.7776,3129,0.16471
51.8537,3010,0.158446
51.9299,3014,0.158657
52.0061,2969,0.156288
52.0822,3025,0.159236
52.1584,2952,0.155393
52.2346,2937,0.154603
52.3108,3062,0.161183
52.3869,2995,0.157656
52.46309,2995,0.157656
52.5393,2923,0.1538664
52.6154,2874,0.151287
52.6916,2958,0.155709
52.7678,2975,0.156604
52.8439,2946,0.155077
52.9201,2978,0.156762
52.9963,2901,0.152708
53.0724,2886,0.151919
53.1486,2838,0.149392
53.22478,2907,0.153024
53.3009,2800,0.147392
53.3771,2872,0.151182
53.4533,2866,0.150866
53.5295,2825,0.148708
53.6056,2908,0.153077
53.6818,2775,0.146076
53.758,2899,0.152603
53.8341,2952,0.155393
53.9103,2730,0.143707
53.98647,2897,0.152498
54.0626,2858,0.150445
54.1388,2899,0.152603
54.215,2758,0.145181
54.2911,2831,0.149024
54.3673,2887,0.151971
54.4435,2862,0.150655
54.5197,2846,0.149813
54.5958,2761,0.145339
54.672,2812,0.148023
54.74816,2857,0.150392
54.8243,2853,0.150182
54.9005,2884,0.151813
54.9767,2931,0.154288
55.0528,2888,0.152024
55.129,2785,0.146602
55.2052,2683,0.141233
55.2813,2750,0.14476
55.3575,2759,0.145233
55.4337,2865,0.150813
55.50985,2901,0.152708
55.586,2850,0.150024
55.6622,2911,0.153235
55.7384,2809,0.147865
55.8145,2913,0.15334
55.8907,2965,0.156077
55.9669,2985,0.15713
56.043,2896,0.152445
56.1192,2977,0.156709
56.1954,2928,0.15413
56.27154,2957,0.155656
56.3477,2893,0.152287
56.4239,2808,0.147813
56.5,2969,0.156288
56.5762,3014,0.158657
56.6524,2891,0.152182
56.7286,2895,0.152392
56.8047,3019,0.15892
56.8809,3025,0.159236
56.9571,2951,0.15534
57.03323,2961,0.155867
57.1094,2950,0.155288
57.1856,2982,0.156972
57.2617,3045,0.160288
57.3379,2979,0.156814
57.4141,2847,0.149866
57.4902,2970,0.15634
57.5664,3132,0.164868
57.6426,3102,0.163289
57.7188,2975,0.156604
57.79492,2928,0.15413
57.8711,3025,0.159236
57.9473,3079,0.162078
58.0234,3057,0.16092
58.0996,2993,0.157551
58.1758,2994,0.157604
58.2519,3097,0.163026
58.3281,2961,0.155867
58.4043,2927,0.154077
58.4804,3023,0.15913
58.55661,2996,0.157709
58.6328,2969,0.156288
58.7089,3022,0.159078
58.7851,3013,0.158604
58.8613,2960,0.155814
58.9375,2916,0.153498
59.0136,3014,0.158657
59.0898,2980,0.156867
59.166,2904,0.152866
59.2421,2909,0.153129
59.3183,3055,0.160815
59.3945,2907,0.153024
59.4706,2890,0.152129
59.5468,2958,0.155709
59.623,2955,0.155551
59.6991,2940,0.154761
59.7753,2902,0.152761
59.8515,2912,0.153287
59.9277,2942,0.154867
60.0038,2933,0.154393
60.07999,2852,0.150129
60.1562,2885,0.151866
60.2323,2992,0.157499
60.3085,2947,0.15513
60.3847,2855,0.150287
60.4608,2836,0.149287
60.537,2920,0.153708
60.6132,2873,0.151234
60.6893,2971,0.156393
60.7655,2979,0.156814
60.84168,3010,0.158446
60.9178,2902,0.152761
60.994,2913,0.15334
61.0702,2892,0.152235
61.1464,2908,0.153077
61.2225,2972,0.156446
61.2987,2930,0.154235
61.3749,2896,0.152445
61.451,3061,0.161131
61.5272,2952,0.155393
61.60337,3009,0.158393
61.6795,2923,0.1538664
61.7557,3014,0.158657
61.8319,2872,0.151182
61.908,2934,0.154445
61.9842,2902,0.152761
62.0604,2988,0.157288
62.1366,2958,0.155709
62.2127,3120,0.164236
62.2889,3012,0.158551
62.36506,3059,0.161025
62.4412,2986,0.157183
62.5174,3008,0.158341
62.5936,3008,0.158341
62.6697,3038,0.15992
62.7459,3126,0.164552
62.8221,2981,0.15692
62.8982,3024,0.159183
62.9744,3115,0.163973
63.0506,3102,0.163289
63.12675,3077,0.161973
63.2029,3124,0.164447
63.2791,3091,0.16271
63.3553,3115,0.163973
63.4314,3152,0.165921
63.5076,3100,0.163184
63.5838,3049,0.160499
63.6599,3040,0.160025
63.7361,3092,0.162763
63.8123,3031,0.159552
63.88844,3126,0.164552
63.9646,3152,0.165921
64.0408,3156,0.166131
64.1169,3170,0.166868
64.1931,3151,0.165868
64.2693,3193,0.168079
64.3455,3213,0.169132
64.4216,3169,0.166816
64.4978,3326,0.17508
64.574,3332,0.175396
64.65013,3320,0.174764
64.7263,3179,0.167342
64.8025,3256,0.171395
64.8786,3216,0.16929
64.9548,3345,0.17608
65.031,3364,0.177081
65.1071,3361,0.176923
65.1833,3388,0.178344
65.2595,3450,0.181608
65.3357,3564,0.187609
65.41182,3521,0.185345
65.488,3550,0.186872
65.5642,3734,0.196557
65.6403,3627,0.190925
65.7165,3606,0.189819
65.7927,3638,0.191504
65.8688,3692,0.194346
65.945,3773,0.19861
66.0212,3918,0.206243
66.0973,3891,0.204822
66.17351,3840,0.202137
66.2497,4017,0.211454
66.3258,4113,0.216508
66.402,4231,0.222719
66.4782,4339,0.228404
66.5544,4195,0.220824
66.6305,4365,0.229773
66.7067,4400,0.231616
66.7829,4560,0.240038
66.859,4787,0.251987
66.9352,4820,0.253724
67.0114,5030,0.264779
67.0875,5018,0.264147
67.1637,5216,0.27457
67.2399,5274,0.277623
67.316,5492,0.289098
67.3922,5878,0.309417
67.4684,6007,0.316208
67.5446,6473,0.340738
67.6207,6725,0.354003
67.69689,7061,0.37169
67.7731,7216,0.379849
67.8492,7452,0.392272
67.9254,7776,0.409328
68.0016,7924,0.417118
68.0777,8155,0.429278
68.1539,8324,0.438174
68.2301,8473,0.446018
68.3062,8451,0.44486
68.3824,8781,0.462231
68.45858,8794,0.462915
68.5347,8670,0.456388
68.6109,8449,0.444754
68.6871,8534,0.449229
68.7633,8481,0.446439
68.8394,8485,0.446649
68.9156,8587,0.452019
68.9918,8277,0.4357
69.0679,8295,0.436648
69.1441,8016,0.421961
69.22027,7929,0.417382
69.2964,7697,0.405169
69.3726,7466,0.393009
69.4488,7164,0.377112
69.5249,7219,0.380007
69.6011,6985,0.36769
69.6773,6690,0.352161
69.7535,6501,0.342212
69.8296,6380,0.335843
69.9058,6241,0.328526
69.98196,6112,0.321735
70.0581,5984,0.314997
70.1343,5719,0.301048
70.2105,5648,0.29731
70.2866,5625,0.296099
70.3628,5423,0.285466
70.439,5328,0.280465
70.5151,5151,0.271148
70.5913,5123,0.269674
70.6675,4889,0.257356
70.74365,4851,0.255356
70.8198,4751,0.250092
70.896,4677,0.246197
70.9722,4620,0.243196
71.0483,4712,0.248039
71.1245,4464,0.234984
71.2007,4547,0.239354
71.2768,4350,0.228984
71.353,4310,0.226878
71.4292,4181,0.220087
71.50534,4201,0.22114
71.5815,4090,0.215297
71.6577,4128,0.217297
71.7338,4138,0.217824
71.81,3909,0.205769
71.8862,3980,0.209507
71.9624,3973,0.209138
72.0385,3948,0.207822
72.1147,3863,0.203348
72.1909,3790,0.199505
72.26703,3847,0.202506
72.3432,3754,0.19761
72.4194,3696,0.194557
72.4955,3663,0.19282
72.5717,3860,0.20319
72.6479,3680,0.193715
72.724,3716,0.19561
72.8002,3663,0.19282
72.8764,3729,0.196294
72.9526,3599,0.189451
73.02872,3755,0.197663
73.1049,3638,0.191504
73.1811,3660,0.192662
73.2572,3541,0.186398
73.3334,3549,0.186819
73.4096,3621,0.190609
73.4857,3509,0.184713
73.5619,3458,0.182029
73.6381,3493,0.183871
73.7142,3552,0.186977
73.79041,3506,0.184555
73.8666,3594,0.189188
73.9427,3504,0.18445
74.0189,3573,0.188082
74.0951,3655,0.192399
74.1713,3393,0.178607
74.2474,3548,0.186766
74.3236,3550,0.186872
74.3998,3445,0.181344
74.4759,3381,0.177975
74.5521,3579,0.188398
74.6283,3510,0.184766
74.7044,3562,0.187503
74.7806,3498,0.184134
74.8568,3567,0.187766
74.9329,3542,0.18645
75.0091,3460,0.182134
75.0853,3654,0.192346
75.1615,3452,0.181713
75.2376,3727,0.196189
75.31379,3537,0.186187
75.39,3536,0.186135
75.4661,3548,0.186766
75.5423,3600,0.189504
75.6185,3509,0.184713
75.6946,3597,0.189346
75.7708,3647,0.191978
75.847,3546,0.186661
75.9231,3573,0.188082
75.9993,3619,0.190504
76.07548,3613,0.190188
76.1516,3612,0.190135
76.2278,3651,0.192188
76.304,3545,0.186608
76.3802,3631,0.191135
76.4563,3642,0.191714
76.5325,3750,0.1974
76.6087,3729,0.196294
76.6848,3669,0.193136
76.761,3662,0.192767
76.83717,3610,0.19003
76.9133,3688,0.194136
76.9895,3717,0.195662
77.0657,3752,0.197505
77.1418,3813,0.200716
77.218,3922,0.206454
77.2942,3823,0.201242
77.3704,3823,0.201242
77.4465,3917,0.20619
77.5227,3850,0.202664
77.59886,3929,0.206822
77.675,3814,0.200769
77.7512,3915,0.206085
77.8274,3835,0.201874
77.9035,3862,0.203295
77.9797,3817,0.200926
78.0559,3961,0.208507
78.132,3946,0.207717
78.2082,4033,0.212297
78.2844,3880,0.204243
78.36055,3990,0.210033
78.4367,4096,0.215613
78.5129,3987,0.209875
78.5891,3991,0.210086
78.6652,4075,0.214508
78.7414,3955,0.208191
78.8176,4023,0.21177
78.8937,3933,0.207033
78.9699,4116,0.216666
79.0461,4052,0.213297
79.12224,4099,0.215771
79.1984,4176,0.219824
79.2746,4249,0.223667
79.3507,4289,0.225772
79.4269,4206,0.221403
79.5031,4204,0.221298
79.5793,4275,0.225036
79.6554,4390,0.231089
79.7316,4382,0.230668
79.8078,4487,0.236195
79.88393,4545,0.239248
79.9601,4743,0.249671
80.0363,4676,0.246144
80.1124,4889,0.257356
80.1886,4789,0.252092
80.2648,4857,0.255672
80.3409,5045,0.265568
80.4171,5103,0.268621
80.4933,5096,0.268253
80.5695,5321,0.280097
80.64562,5346,0.281413
80.7218,5500,0.289519
80.798,5726,0.301416
80.8741,5754,0.30289
80.9503,6069,0.319471
81.0265,6073,0.319682
81.1026,6173,0.324946
81.1788,6497,0.342001
81.255,6662,0.350687
81.3311,7146,0.376165
81.40731,7266,0.382481
81.4835,7557,0.3978
81.5596,7964,0.419224
81.6358,8256,0.434595
81.712,8349,0.43949
81.7882,8781,0.462231
81.8643,8978,0.472601
81.9405,9144,0.481339
82.0167,9536,0.501974
82.0928,9718,0.511554
82.169,9893,0.520766
82.2452,10090,0.531136
82.3213,10041,0.528557
82.3975,10080,0.53061
82.4737,9981,0.525399
82.5498,10049,0.528978
82.626,10190,0.5364
82.7022,10161,0.534874
82.7784,10280,0.541138
82.8545,10263,0.540243
82.93069,10197,0.536769
83.0069,10143,0.533926
83.083,10015,0.527189
83.1592,10063,0.529715
83.2354,9914,0.521872
83.3115,9871,0.519608
83.3877,9999,0.526346
83.4639,9993,0.52603
83.54,9543,0.502342
83.6162,9492,0.499658
83.69238,9380,0.493762
83.7685,9290,0.489025
83.8447,9264,0.487656
83.9209,9086,0.478286
83.9971,8913,0.469179
84.0732,8872,0.467021
84.1494,8676,0.456704
84.2256,8518,0.448387
84.3017,8420,0.443228
84.3779,8146,0.428805
84.45407,8031,0.422751
84.5302,7715,0.406117
84.6064,7730,0.406906
84.6826,7597,0.399905
84.7587,7394,0.389219
84.8349,7298,0.384166
84.9111,7195,0.378744
84.9873,6970,0.3669
85.0634,6829,0.359478
85.1396,6756,0.355635
85.21576,6855,0.360846
85.2919,6816,0.358793
85.3681,6751,0.355372
85.4443,6531,0.343791
85.5204,6602,0.347529
85.5966,6342,0.333842
85.6728,6209,0.326841
85.7489,6267,0.329894
85.8251,6342,0.333842
85.9013,6193,0.325999
85.97745,6294,0.331315
86.0536,6135,0.322946
86.1298,6195,0.326104
86.206,6061,0.31905
86.2821,6237,0.328315
86.3583,6178,0.325209
86.4345,6188,0.325736
86.5106,6179,0.325262
86.5868,6090,0.320577
86.663,6092,0.320682
86.73914,5978,0.314681
86.8153,5962,0.313839
86.8915,5862,0.308575
86.9676,5928,0.312049
87.0438,5826,0.30668
87.12,5856,0.308259
87.1962,5675,0.298731
87.2723,5774,0.303943
87.3485,5731,0.301679
87.4247,5557,0.29252
87.50083,5512,0.290151
87.577,5715,0.300837
87.6532,5483,0.288625
87.7293,5371,0.282729
87.8055,5361,0.282202
87.8817,5201,0.27378
87.9578,5160,0.271622
88.034,5060,0.266358
88.1102,5005,0.263463
88.1864,5159,0.271569
88.26252,4853,0.255461
88.3387,4971,0.261673
88.4149,4798,0.252566
88.491,4657,0.245144
88.5672,4655,0.245039
88.6434,4604,0.242354
88.7195,4583,0.241249
88.7957,4566,0.240354
88.8719,4460,0.234774
88.948,4374,0.230247
89.02421,4322,0.22751
89.1004,4233,0.222825
89.1765,4104,0.216034
89.2527,4134,0.217613
89.3289,4077,0.214613
89.4051,4049,0.213139
89.4812,4043,0.212823
89.5574,3979,0.209454
89.6336,3972,0.209086
89.7097,3781,0.199031
89.7859,3904,0.205506
89.8621,3909,0.205769
89.9382,3766,0.198242
89.9763,3760,0.197926