File: data/XRD_raw_spectra/RuPt 80-20.csv
6,3624
6.07617,3602
6.15234,3563
6.22851,3454
6.30468,3508
6.38085,3571
6.45701,3435
6.53318,3483
6.60935,3582
6.68552,3369
6.76169,3276
6.83786,3148
6.91403,3080
6.9902,3048
7.06637,2964
7.14254,2909
7.2187,2947
7.29487,2992
7.37104,2882
7.44721,2881
7.52338,2795
7.59955,2774
7.67572,2748
7.75189,2781
7.82806,2849
7.90423,2652
7.98039,2651
8.05656,2624
8.13273,2626
8.2089,2574
8.28507,2634
8.36124,2572
8.43741,2554
8.51358,2462
8.58975,2581
8.66592,2516
8.74208,2446
8.81825,2515
8.89442,2568
8.97059,2338
9.04676,2410
9.12293,2380
9.1991,2285
9.27527,2354
9.35144,2387
9.42761,2345
9.50377,2276
9.57994,2275
9.65611,2328
9.73228,2203
9.80845,2295
9.88462,2243
9.96079,2189
10.03696,2204
10.11313,2169
10.1893,2153
10.26546,2067
10.34163,2091
10.4178,2100
10.49397,2111
10.57014,2005
10.64631,2106
10.72248,2144
10.79865,2078
10.87482,2046
10.95099,1972
11.02715,1959
11.10332,1950
11.17949,1968
11.25566,1930
11.33183,1913
11.408,1870
11.48417,1884
11.56034,1814
11.63651,1905
11.71268,1889
11.78884,1780
11.86501,1808
11.94118,1718
12.01735,1800
12.09352,1796
12.16969,1731
12.24586,1735
12.32203,1678
12.3982,1704
12.47437,1665
12.55053,1712
12.6267,1517
12.70287,1621
12.77904,1566
12.85521,1557
12.93138,1606
13.00755,1484
13.08372,1540
13.15989,1544
13.23606,1519
13.31222,1566
13.38839,1536
13.46456,1427
13.54073,1429
13.6169,1474
13.69307,1402
13.76924,1378
13.84541,1403
13.92158,1419
13.99775,1394
14.07391,1393
14.15008,1358
14.22625,1293
14.30242,1423
14.37859,1305
14.45476,1383
14.53093,1362
14.6071,1349
14.68327,1344
14.75944,1332
14.8356,1350
14.91177,1357
14.98794,1356
15.06411,1308
15.14028,1372
15.21645,1344
15.29262,1362
15.36879,1283
15.44496,1339
15.52113,1298
15.59729,1297
15.67346,1349
15.74963,1309
15.8258,1330
15.90197,1296
15.97814,1286
16.05431,1334
16.13048,1306
16.20665,1311
16.28282,1331
16.35898,1368
16.43515,1310
16.51132,1334
16.58749,1275
16.66366,1330
16.73983,1321
16.816,1256
16.89217,1242
16.96834,1301
17.04451,1286
17.12067,1205
17.19684,1286
17.27301,1200
17.34918,1225
17.42535,1186
17.50152,1210
17.57769,1289
17.65386,1252
17.73003,1203
17.8062,1215
17.88236,1249
17.95853,1234
18.0347,1263
18.11087,1275
18.18704,1185
18.26321,1244
18.33938,1201
18.41555,1251
18.49172,1174
18.56789,1208
18.64405,1176
18.72022,1212
18.79639,1254
18.87256,1236
18.94873,1201
19.0249,1184
19.10107,1223
19.17724,1132
19.25341,1212
19.32958,1186
19.40574,1117
19.48191,1207
19.55808,1198
19.63425,1194
19.71042,1187
19.78659,1210
19.86276,1242
19.93893,1166
20.0151,1155
20.09127,1201
20.16743,1215
20.2436,1180
20.31977,1172
20.39594,1147
20.47211,1164
20.54828,1179
20.62445,1148
20.70062,1131
20.77679,1188
20.85296,1176
20.92912,1213
21.00529,1168
21.08146,1188
21.15763,1188
21.2338,1122
21.30997,1122
21.38614,1211
21.46231,1150
21.53848,1133
21.61465,1161
21.69081,1198
21.76698,1253
21.84315,1189
21.91932,1136
21.99549,1194
22.07166,1143
22.14783,1115
22.224,1142
22.30017,1109
22.37634,1123
22.4525,1174
22.52867,1053
22.60484,1143
22.68101,1147
22.75718,1168
22.83335,1191
22.90952,1125
22.98569,1153
23.06186,1115
23.13803,1082
23.21419,1075
23.29036,1123
23.36653,1155
23.4427,1188
23.51887,1140
23.59504,1055
23.67121,1132
23.74738,1121
23.82355,1076
23.89972,1145
23.97588,1094
24.05205,1104
24.12822,1060
24.20439,1069
24.28056,1129
24.35673,1158
24.4329,1151
24.50907,1125
24.58524,1057
24.66141,1116
24.73757,1091
24.81374,1133
24.88991,1130
24.96608,1060
25.04225,1102
25.11842,1066
25.19459,1090
25.27076,1070
25.34693,1092
25.4231,1080
25.49926,1060
25.57543,1068
25.6516,1067
25.72777,1113
25.80394,1132
25.88011,1034
25.95628,1105
26.03245,1093
26.10862,1023
26.18479,1096
26.26095,1122
26.33712,1122
26.41329,1030
26.48946,1114
26.56563,1093
26.6418,1112
26.71797,1070
26.79414,1051
26.87031,1111
26.94648,1097
27.02264,1143
27.09881,1096
27.17498,1039
27.25115,1035
27.32732,1079
27.40349,1081
27.47966,1047
27.55583,1051
27.632,1106
27.70817,1011
27.78433,1032
27.8605,1116
27.93667,1098
28.01284,1072
28.08901,1073
28.16518,1175
28.24135,1130
28.31752,1131
28.39369,1097
28.46986,1143
28.54602,1125
28.62219,1097
28.69836,1089
28.77453,1080
28.8507,1121
28.92687,1103
29.00304,1149
29.07921,1227
29.15538,1238
29.23155,1125
29.30771,1109
29.38388,1097
29.46005,1057
29.53622,1145
29.61239,1082
29.68856,1116
29.76473,1127
29.8409,1151
29.91707,1089
29.99324,1157
30.0694,1102
30.14557,1037
30.22174,1063
30.29791,1082
30.37408,1081
30.45025,1078
30.52642,1075
30.60259,1067
30.67876,1133
30.75493,1088
30.83109,1080
30.90726,1105
30.98343,1096
31.0596,1112
31.13577,1084
31.21194,1059
31.28811,1133
31.36428,1131
31.44045,1146
31.51662,1124
31.59278,1080
31.66895,1076
31.74512,1095
31.82129,1155
31.89746,1136
31.97363,1079
32.0498,1137
32.12597,1122
32.20214,1145
32.27831,1145
32.35447,1096
32.43064,1085
32.50681,1061
32.58298,1188
32.65915,1069
32.73532,1138
32.81149,1152
32.88766,1111
32.96383,1113
33.04,1127
33.11616,1189
33.19233,1131
33.2685,1122
33.34467,1168
33.42084,1194
33.49701,1203
33.57318,1124
33.64935,1177
33.72552,1151
33.80169,1148
33.87785,1171
33.95402,1198
34.03019,1273
34.10636,1162
34.18253,1150
34.2587,1240
34.33487,1210
34.41104,1238
34.48721,1171
34.56338,1159
34.63954,1256
34.71571,1240
34.79188,1202
34.86805,1304
34.94422,1268
35.02039,1183
35.09656,1285
35.17273,1286
35.2489,1339
35.32507,1254
35.40123,1310
35.4774,1287
35.55357,1192
35.62974,1330
35.70591,1309
35.78208,1316
35.85825,1373
35.93442,1279
36.01059,1285
36.08676,1340
36.16292,1336
36.23909,1345
36.31526,1366
36.39143,1373
36.4676,1373
36.54377,1446
36.61994,1446
36.69611,1499
36.77228,1471
36.84845,1526
36.92461,1563
37.00078,1529
37.07695,1643
37.15312,1569
37.22929,1665
37.30546,1755
37.38163,1876
37.4578,1878
37.53397,1995
37.61014,2148
37.6863,2297
37.76247,2376
37.83864,2471
37.91481,2699
37.99098,2699
38.06715,2996
38.14332,2864
38.21949,2985
38.29566,2917
38.37183,2863
38.44799,2924
38.52416,2778
38.60033,2599
38.6765,2604
38.75267,2584
38.82884,2522
38.90501,2599
38.98118,2520
39.05735,2455
39.13352,2576
39.20968,2438
39.28585,2559
39.36202,2521
39.43819,2576
39.51436,2617
39.59053,2642
39.6667,2747
39.74287,2705
39.81904,2798
39.89521,2911
39.97137,2909
40.04754,3054
40.12371,3099
40.19988,3020
40.27605,3222
40.35222,3282
40.42839,3310
40.50456,3436
40.58073,3642
40.6569,3643
40.73306,3731
40.80923,3929
40.8854,3973
40.96157,4202
41.03774,4250
41.11391,4433
41.19008,4420
41.26625,4600
41.34242,4686
41.41859,4588
41.49475,4683
41.57092,4720
41.64709,4750
41.72326,4522
41.79943,4587
41.8756,4454
41.95177,4329
42.02794,4335
42.10411,4197
42.18028,4088
42.25644,4186
42.33261,4087
42.40878,4235
42.48495,4291
42.56112,4209
42.63729,4302
42.71346,4354
42.78963,4489
42.8658,4690
42.94197,4716
43.01813,4819
43.0943,5053
43.17047,5200
43.24664,5357
43.32281,5737
43.39898,5954
43.47515,6051
43.55132,6261
43.62749,6227
43.70366,6404
43.77982,6309
43.85599,6081
43.93216,5767
44.00833,5360
44.0845,5181
44.16067,4764
44.23684,4481
44.31301,4365
44.38918,4234
44.46535,3935
44.54151,3600
44.61768,3480
44.69385,3392
44.77002,3198
44.84619,3113
44.92236,3073
44.99853,2934
45.0747,2839
45.15087,2809
45.22704,2803
45.3032,2586
45.37937,2694
45.45554,2593
45.53171,2502
45.60788,2521
45.68405,2461
45.76022,2379
45.83639,2382
45.91256,2331
45.98873,2357
46.06489,2198
46.14106,2158
46.21723,2096
46.2934,2182
46.36957,2139
46.44574,2144
46.52191,2124
46.59808,2035
46.67425,2021
46.75042,2023
46.82658,2055
46.90275,1943
46.97892,1911
47.05509,1883
47.13126,1832
47.20743,1951
47.2836,1816
47.35977,1873
47.43594,1781
47.51211,1770
47.58827,1740
47.66444,1686
47.74061,1688
47.81678,1677
47.89295,1671
47.96912,1655
48.04529,1625
48.12146,1616
48.19763,1709
48.2738,1603
48.34996,1617
48.42613,1550
48.5023,1566
48.57847,1527
48.65464,1462
48.73081,1489
48.80698,1542
48.88315,1480
48.95932,1493
49.03549,1473
49.11165,1414
49.18782,1470
49.26399,1437
49.34016,1414
49.41633,1438
49.4925,1418
49.56867,1450
49.64484,1412
49.72101,1437
49.79718,1475
49.87334,1409
49.94951,1391
50.02568,1345
50.10185,1354
50.17802,1241
50.25419,1438
50.33036,1267
50.40653,1273
50.4827,1270
50.55887,1289
50.63503,1363
50.7112,1375
50.78737,1299
50.86354,1290
50.93971,1309
51.01588,1270
51.09205,1322
51.16822,1271
51.24439,1279
51.32056,1306
51.39672,1352
51.47289,1234
51.54906,1253
51.62523,1226
51.7014,1306
51.77757,1324
51.85374,1244
51.92991,1263
52.00608,1245
52.08225,1318
52.15841,1307
52.23458,1285
52.31075,1209
52.38692,1247
52.46309,1332
52.53926,1269
52.61543,1333
52.6916,1303
52.76777,1266
52.84394,1259
52.9201,1239
52.99627,1298
53.07244,1215
53.14861,1314
53.22478,1240
53.30095,1270
53.37712,1243
53.45329,1275
53.52946,1242
53.60563,1230
53.68179,1289
53.75796,1282
53.83413,1270
53.9103,1298
53.98647,1281
54.06264,1214
54.13881,1239
54.21498,1310
54.29115,1340
54.36732,1305
54.44348,1345
54.51965,1244
54.59582,1317
54.67199,1274
54.74816,1279
54.82433,1310
54.9005,1269
54.97667,1298
55.05284,1296
55.12901,1230
55.20517,1294
55.28134,1296
55.35751,1324
55.43368,1333
55.50985,1321
55.58602,1385
55.66219,1304
55.73836,1362
55.81453,1356
55.8907,1381
55.96686,1422
56.04303,1405
56.1192,1444
56.19537,1411
56.27154,1448
56.34771,1416
56.42388,1425
56.50005,1401
56.57622,1530
56.65239,1486
56.72855,1528
56.80472,1412
56.88089,1547
56.95706,1568
57.03323,1519
57.1094,1582
57.18557,1638
57.26174,1549
57.33791,1584
57.41408,1653
57.49024,1632
57.56641,1583
57.64258,1596
57.71875,1652
57.79492,1662
57.87109,1704
57.94726,1679
58.02343,1766
58.0996,1645
58.17577,1649
58.25193,1678
58.3281,1697
58.40427,1636
58.48044,1590
58.55661,1595
58.63278,1547
58.70895,1514
58.78512,1453
58.86129,1532
58.93746,1497
59.01362,1496
59.08979,1481
59.16596,1443
59.24213,1467
59.3183,1482
59.39447,1387
59.47064,1443
59.54681,1421
59.62298,1416
59.69915,1381
59.77531,1442
59.85148,1416
59.92765,1418
60.00382,1414
60.07999,1427
60.15616,1398
60.23233,1473
60.3085,1391
60.38467,1399
60.46084,1414
60.537,1425
60.61317,1367
60.68934,1414
60.76551,1394
60.84168,1365
60.91785,1353
60.99402,1392
61.07019,1451
61.14636,1404
61.22253,1358
61.29869,1436
61.37486,1385
61.45103,1450
61.5272,1456
61.60337,1411
61.67954,1448
61.75571,1383
61.83188,1418
61.90805,1402
61.98422,1461
62.06038,1443
62.13655,1395
62.21272,1429
62.28889,1425
62.36506,1380
62.44123,1433
62.5174,1383
62.59357,1412
62.66974,1398
62.74591,1417
62.82207,1409
62.89824,1380
62.97441,1394
63.05058,1488
63.12675,1445
63.20292,1399
63.27909,1416
63.35526,1492
63.43143,1422
63.5076,1352
63.58376,1399
63.65993,1473
63.7361,1409
63.81227,1383
63.88844,1438
63.96461,1414
64.04078,1447
64.11695,1397
64.19312,1439
64.26929,1417
64.34545,1446
64.42162,1459
64.49779,1412
64.57396,1419
64.65013,1382
64.7263,1330
64.80247,1410
64.87864,1426
64.95481,1430
65.03098,1378
65.10714,1369
65.18331,1405
65.25948,1474
65.33565,1396
65.41182,1368
65.48799,1429
65.56416,1462
65.64033,1449
65.7165,1443
65.79267,1482
65.86883,1432
65.945,1384
66.02117,1437
66.09734,1513
66.17351,1505
66.24968,1609
66.32585,1522
66.40202,1495
66.47819,1493
66.55436,1515
66.63052,1562
66.70669,1578
66.78286,1633
66.85903,1541
66.9352,1612
67.01137,1588
67.08754,1639
67.16371,1666
67.23988,1651
67.31605,1749
67.39221,1691
67.46838,1709
67.54455,1735
67.62072,1913
67.69689,1766
67.77306,1932
67.84923,1903
67.9254,1962
68.00157,2000
68.07774,2128
68.1539,2117
68.23007,2219
68.30624,2330
68.38241,2410
68.45858,2479
68.53475,2657
68.61092,2693
68.68709,2842
68.76326,2956
68.83943,3138
68.91559,3242
68.99176,3126
69.06793,3127
69.1441,3104
69.22027,3084
69.29644,2911
69.37261,2933
69.44878,2758
69.52495,2608
69.60112,2587
69.67728,2350
69.75345,2358
69.82962,2216
69.90579,2272
69.98196,2031
70.05813,2031
70.1343,1997
70.21047,1998
70.28664,1935
70.36281,1862
70.43897,1851
70.51514,1764
70.59131,1742
70.66748,1777
70.74365,1769
70.81982,1714
70.89599,1648
70.97216,1633
71.04833,1659
71.1245,1676
71.20066,1700
71.27683,1658
71.353,1622
71.42917,1651
71.50534,1569
71.58151,1561
71.65768,1643
71.73385,1560
71.81002,1525
71.88619,1598
71.96235,1587
72.03852,1505
72.11469,1525
72.19086,1550
72.26703,1510
72.3432,1464
72.41937,1525
72.49554,1580
72.57171,1521
72.64788,1569
72.72404,1495
72.80021,1546
72.87638,1526
72.95255,1483
73.02872,1607
73.10489,1472
73.18106,1461
73.25723,1561
73.3334,1520
73.40957,1498
73.48573,1549
73.5619,1463
73.63807,1446
73.71424,1487
73.79041,1534
73.86658,1488
73.94275,1532
74.01892,1505
74.09509,1469
74.17126,1542
74.24742,1531
74.32359,1503
74.39976,1604
74.47593,1546
74.5521,1541
74.62827,1598
74.70444,1612
74.78061,1553
74.85678,1528
74.93295,1574
75.00911,1611
75.08528,1584
75.16145,1592
75.23762,1688
75.31379,1567
75.38996,1611
75.46613,1651
75.5423,1622
75.61847,1620
75.69464,1698
75.7708,1683
75.84697,1689
75.92314,1756
75.99931,1786
76.07548,1783
76.15165,1793
76.22782,1748
76.30399,1773
76.38016,1805
76.45633,1846
76.53249,1869
76.60866,1814
76.68483,1869
76.761,1928
76.83717,1876
76.91334,1928
76.98951,1897
77.06568,2048
77.14185,2025
77.21802,2106
77.29418,2090
77.37035,2115
77.44652,2084
77.52269,2128
77.59886,2151
77.67503,2210
77.7512,2184
77.82737,2159
77.90354,2178
77.97971,2289
78.05587,2136
78.13204,2113
78.20821,2058
78.28438,1995
78.36055,2006
78.43672,1917
78.51289,1918
78.58906,1900
78.66523,1952
78.7414,1889
78.81756,1825
78.89373,1856
78.9699,1796
79.04607,1858
79.12224,1767
79.19841,1869
79.27458,1843
79.35075,1810
79.42692,1829
79.50309,1782
79.57925,1768
79.65542,1793
79.73159,1738
79.80776,1762
79.88393,1768
79.9601,1795
80.03627,1784
80.11244,1814
80.18861,1738
80.26478,1870
80.34094,1790
80.41711,1752
80.49328,1866
80.56945,1845
80.64562,1879
80.72179,1814
80.79796,1865
80.87413,1900
80.9503,1979
81.02647,1866
81.10263,1952
81.1788,1992
81.25497,2045
81.33114,2024
81.40731,2072
81.48348,2109
81.55965,2159
81.63582,2175
81.71199,2264
81.78816,2214
81.86432,2254
81.94049,2261
82.01666,2231
82.09283,2382
82.169,2397
82.24517,2402
82.32134,2382
82.39751,2426
82.47368,2398
82.54985,2471
82.62601,2472
82.70218,2565
82.77835,2643
82.85452,2654
82.93069,2737
83.00686,2823
83.08303,2809
83.1592,3016
83.23537,3013
83.31154,3136
83.3877,3116
83.46387,3266
83.54004,3389
83.61621,3529
83.69238,3533
83.76855,3505
83.84472,3572
83.92089,3702
83.99706,3830
84.07323,3664
84.14939,3574
84.22556,3654
84.30173,3623
84.3779,3555
84.45407,3438
84.53024,3362
84.60641,3367
84.68258,3255
84.75875,3266
84.83492,3277
84.91108,3148
84.98725,3109
85.06342,3026
85.13959,3125
85.21576,3020
85.29193,2952
85.3681,2997
85.44427,3084
85.52044,2838
85.59661,2892
85.67277,2887
85.74894,2769
85.82511,2684
85.90128,2588
85.97745,2492
86.05362,2459
86.12979,2372
86.20596,2274
86.28213,2223
86.3583,2271
86.43446,2158
86.51063,2100
86.5868,2076
86.66297,2001
86.73914,2011
86.81531,1867
86.89148,1888
86.96765,1897
87.04382,1886
87.11999,1866
87.19615,1701
87.27232,1800
87.34849,1760
87.42466,1810
87.50083,1811
87.577,1744
87.65317,1779
87.72934,1741
87.80551,1680
87.88168,1610
87.95784,1673
88.03401,1555
88.11018,1606
88.18635,1714
88.26252,1663
88.33869,1668
88.41486,1563
88.49103,1568
88.5672,1634
88.64337,1608
88.71953,1594
88.7957,1594
88.87187,1591
88.94804,1537
89.02421,1569
89.10038,1597
89.17655,1539
89.25272,1553
89.32889,1502
89.40506,1618
89.48122,1531
89.55739,1458
89.63356,1566
89.70973,1562
89.7859,1657
89.86207,1491
89.93824,1528
89.97632,1632