File: data/XRD_raw_spectra/XRD_Ru-Rh.csv
10,6511
10.0709,6403
10.1418,6537
10.2127,6554
10.2836,6422
10.3545,6311
10.4254,6456
10.4963,6305
10.5673,6137
10.6382,6228
10.7091,5980
10.78,6048
10.8509,6020
10.9218,5968
10.9927,5968
11.0636,5988
11.1345,5860
11.2054,5844
11.2763,5923
11.3472,5736
11.4181,5918
11.489,5870
11.5599,5790
11.6309,5687
11.7018,5659
11.7727,5677
11.8436,5732
11.9145,5534
11.9854,5645
12.0563,5483
12.1272,5451
12.1981,5512
12.269,5354
12.3399,5314
12.4108,5404
12.4817,5248
12.5526,5171
12.6235,5149
12.6945,5147
12.7654,5130
12.8363,5025
12.9072,5015
12.9781,5056
13.049,4841
13.1199,4824
13.1908,4761
13.2617,4657
13.3326,4684
13.4035,4650
13.4744,4473
13.54533,4462
13.6162,4595
13.6871,4529
13.758,4367
13.829,4467
13.8999,4327
13.9708,4151
14.0417,4258
14.1126,4247
14.1835,4091
14.2544,4206
14.3253,4102
14.3962,4078
14.4671,4058
14.538,3940
14.6089,4073
14.6798,4055
14.7507,3879
14.8216,3940
14.8926,3901
14.9635,3876
15.0344,3941
15.1053,3855
15.1762,3766
15.2471,3836
15.318,3918
15.3889,3863
15.4598,3896
15.5307,3715
15.6016,3824
15.6725,3857
15.7434,3757
15.8143,3859
15.8852,3831
15.9562,3877
16.0271,3818
16.098,3866
16.1689,3737
16.2398,3846
16.3107,3770
16.3816,3809
16.4525,3689
16.5234,3769
16.5943,3749
16.6652,3730
16.7361,3565
16.807,3689
16.8779,3801
16.9488,3697
17.0198,3644
17.09066,3639
17.1616,3693
17.2325,3687
17.3034,3634
17.3743,3585
17.4452,3704
17.5161,3638
17.587,3513
17.6579,3480
17.7288,3551
17.7997,3603
17.8706,3596
17.9415,3497
18.0124,3604
18.0834,3594
18.1543,3542
18.2252,3632
18.2961,3480
18.367,3585
18.4379,3528
18.5088,3423
18.5797,3477
18.6506,3454
18.7215,3386
18.7924,3554
18.8633,3482
18.9342,3450
19.0051,3476
19.076,3521
19.147,3440
19.2179,3430
19.2888,3376
19.3597,3393
19.4306,3325
19.5015,3317
19.5724,3470
19.6433,3299
19.7142,3372
19.7851,3342
19.856,3430
19.9269,3437
19.9978,3414
20.0687,3363
20.1396,3317
20.2106,3413
20.2815,3233
20.3524,3315
20.4233,3138
20.4942,3293
20.5651,3330
20.63599,3235
20.7069,3255
20.7778,3177
20.8487,3256
20.9196,3264
20.9905,3325
21.0614,3246
21.1323,3205
21.2032,3130
21.2741,3212
21.3451,3187
21.416,3225
21.4869,3105
21.5578,3149
21.6287,3178
21.6996,3228
21.7705,3167
21.8414,3158
21.9123,3118
21.9832,3130
22.0541,3066
22.125,3087
22.1959,3036
22.2668,3115
22.3377,2977
22.4087,3126
22.4796,3012
22.5505,3121
22.6214,3035
22.6923,3168
22.7632,3048
22.8341,3178
22.905,3096
22.9759,3013
23.0468,2992
23.1177,3044
23.1886,2993
23.2595,2931
23.3304,2980
23.4013,3059
23.4723,3032
23.5432,3043
23.6141,3017
23.685,3107
23.7559,2945
23.8268,2926
23.8977,2886
23.9686,2999
24.0395,3088
24.1104,3004
24.18132,2798
24.2522,2910
24.3231,2896
24.394,2896
24.4649,2817
24.5359,2852
24.6068,2938
24.6777,2782
24.7486,2897
24.8195,2836
24.8904,2923
24.9613,2976
25.0322,2816
25.1031,2985
25.174,2930
25.2449,2899
25.3158,2837
25.3867,2821
25.4576,2804
25.5285,2892
25.5995,2793
25.6704,2875
25.7413,2799
25.8122,2851
25.8831,2837
25.954,2802
26.0249,2719
26.0958,2716
26.1667,2731
26.2376,2735
26.3085,2695
26.3794,2812
26.4503,2785
26.5212,2738
26.5921,2847
26.6631,2710
26.734,2658
26.8049,2712
26.8758,2706
26.9467,2728
27.0176,2695
27.0885,2740
27.1594,2707
27.2303,2713
27.3012,2760
27.3721,2763
27.443,2717
27.5139,2607
27.5848,2716
27.6557,2628
27.72665,2739
27.7976,2707
27.8685,2638
27.9394,2700
28.0103,2704
28.0812,2769
28.1521,2756
28.223,2723
28.2939,2674
28.3648,2677
28.4357,2673
28.5066,2700
28.5775,2619
28.6484,2629
28.7193,2681
28.7902,2590
28.8612,2653
28.9321,2688
29.003,2679
29.0739,2796
29.1448,2897
29.2157,2724
29.2866,2672
29.3575,2687
29.4284,2647
29.4993,2557
29.5702,2630
29.6411,2562
29.712,2520
29.7829,2624
29.8538,2613
29.9248,2571
29.9957,2534
30.0666,2635
30.1375,2708
30.2084,2558
30.2793,2627
30.3502,2537
30.4211,2567
30.492,2590
30.5629,2621
30.6338,2655
30.7047,2607
30.7756,2486
30.8465,2424
30.9174,2499
30.9884,2550
31.0593,2561
31.1302,2622
31.2011,2397
31.27198,2580
31.3429,2517
31.4138,2604
31.4847,2589
31.5556,2590
31.6265,2575
31.6974,2578
31.7683,2519
31.8392,2554
31.9101,2486
31.981,2395
32.052,2551
32.1229,2481
32.1938,2576
32.2647,2527
32.3356,2502
32.4065,2521
32.4774,2487
32.5483,2505
32.6192,2614
32.6901,2517
32.761,2482
32.8319,2445
32.9028,2520
32.9737,2446
33.0446,2469
33.1156,2410
33.1865,2453
33.2574,2494
33.3283,2585
33.3992,2461
33.4701,2480
33.541,2477
33.6119,2374
33.6828,2404
33.7537,2421
33.8246,2438
33.8955,2372
33.9664,2459
34.0373,2361
34.1082,2435
34.1792,2448
34.2501,2404
34.321,2496
34.3919,2590
34.4628,2452
34.5337,2382
34.6046,2412
34.6755,2424
34.7464,2495
34.81731,2507
34.8882,2488
34.9591,2427
35.03,2519
35.1009,2537
35.1718,2527
35.2427,2461
35.3137,2519
35.3846,2473
35.4555,2499
35.5264,2463
35.5973,2607
35.6682,2500
35.7391,2447
35.81,2569
35.8809,2456
35.9518,2436
36.0227,2453
36.0936,2436
36.1645,2437
36.2354,2499
36.3063,2543
36.3773,2559
36.4482,2518
36.5191,2464
36.59,2455
36.6609,2478
36.7318,2524
36.8027,2577
36.8736,2519
36.9445,2612
37.0154,2693
37.0863,2618
37.1572,2806
37.2281,2667
37.299,2776
37.3699,2894
37.4409,2841
37.5118,2971
37.5827,3096
37.6536,3280
37.7245,3545
37.7954,3849
37.8663,4412
37.9372,5239
38.0081,6969
38.079,8743
38.1499,11434
38.2208,13627
38.2917,14632
38.36264,13871
38.4335,11482
38.5045,8986
38.5754,6803
38.6463,5183
38.7172,4382
38.7881,3832
38.859,3598
38.9299,3269
39.0008,3144
39.0717,3091
39.1426,3017
39.2135,2976
39.2844,2894
39.3553,2880
39.4262,2981
39.4971,2853
39.5681,2840
39.639,2756
39.7099,2800
39.7808,2757
39.8517,2695
39.9226,2745
39.9935,2740
40.0644,2808
40.1353,2726
40.2062,2708
40.2771,2703
40.348,2715
40.4189,2779
40.4898,2799
40.5607,2781
40.6317,2847
40.7026,2867
40.7735,2822
40.8444,2940
40.9153,3011
40.9862,2932
41.0571,3015
41.128,3189
41.1989,3337
41.2698,3477
41.3407,3576
41.4116,3911
41.4825,4310
41.5534,5060
41.6243,6084
41.6953,7560
41.7662,9831
41.8371,12225
41.90797,14556
41.9789,15740
42.0498,15015
42.1207,13084
42.1916,10522
42.2625,8392
42.3334,6731
42.4043,5762
42.4752,5239
42.5461,4792
42.617,4662
42.6879,4510
42.7588,4588
42.8298,4854
42.9007,4747
42.9716,5003
43.0425,5181
43.1134,5776
43.1843,6100
43.2552,7030
43.3261,8086
43.397,9799
43.4679,12639
43.5388,16376
43.6097,22728
43.6806,31717
43.7515,42340
43.8224,50824
43.8934,54686
43.9643,52075
44.0352,43290
44.1061,32884
44.177,23723
44.2479,16704
44.3188,12150
44.3897,9439
44.4606,7918
44.5315,6686
44.6024,5739
44.6733,5181
44.7442,4827
44.8151,4439
44.886,4147
44.957,3921
45.0279,3827
45.0988,3645
45.1697,3484
45.2406,3472
45.3115,3364
45.3824,3293
45.4533,3201
45.5242,3054
45.5951,3058
45.666,2990
45.7369,3016
45.8078,2934
45.8787,2901
45.9496,2814
46.0206,2872
46.0915,2765
46.1624,2753
46.2333,2931
46.3042,2773
46.3751,2807
46.446,2769
46.5169,2745
46.5878,2789
46.6587,2657
46.7296,2706
46.8005,2734
46.8714,2743
46.9423,2688
47.0132,2698
47.0842,2714
47.1551,2621
47.226,2724
47.2969,2639
47.3678,2595
47.4387,2583
47.5096,2658
47.5805,2611
47.6514,2555
47.7223,2609
47.7932,2591
47.8641,2580
47.935,2561
48.0059,2454
48.0768,2542
48.1478,2491
48.2187,2645
48.2896,2487
48.3605,2577
48.4314,2487
48.5023,2586
48.5732,2604
48.6441,2463
48.715,2486
48.7859,2542
48.8568,2553
48.9277,2530
48.99863,2522
49.0695,2462
49.1404,2494
49.2113,2502
49.2823,2548
49.3532,2492
49.4241,2399
49.495,2576
49.5659,2444
49.6368,2526
49.7077,2435
49.7786,2425
49.8495,2404
49.9204,2473
49.9913,2526
50.0622,2504
50.1331,2549
50.204,2463
50.2749,2511
50.3459,2458
50.4168,2318
50.4877,2455
50.5586,2419
50.6295,2486
50.7004,2544
50.7713,2357
50.8422,2469
50.9131,2483
50.984,2490
51.0549,2537
51.1258,2458
51.1967,2472
51.2676,2503
51.3385,2448
51.4095,2393
51.4804,2502
51.5513,2485
51.6222,2436
51.6931,2405
51.764,2481
51.8349,2432
51.9058,2371
51.9767,2375
52.0476,2499
52.1185,2466
52.1894,2546
52.2603,2527
52.3312,2491
52.4021,2453
52.4731,2480
52.54396,2402
52.6149,2536
52.6858,2507
52.7567,2395
52.8276,2483
52.8985,2384
52.9694,2488
53.0403,2502
53.1112,2491
53.1821,2502
53.253,2419
53.3239,2537
53.3948,2438
53.4657,2532
53.5367,2509
53.6076,2458
53.6785,2494
53.7494,2430
53.8203,2444
53.8912,2491
53.9621,2603
54.033,2471
54.1039,2445
54.1748,2470
54.2457,2366
54.3166,2423
54.3875,2449
54.4584,2533
54.5293,2456
54.6003,2488
54.6712,2423
54.7421,2505
54.813,2537
54.8839,2579
54.9548,2466
55.0257,2544
55.0966,2543
55.1675,2523
55.2384,2529
55.3093,2530
55.3802,2499
55.4511,2601
55.522,2549
55.5929,2685
55.6639,2586
55.7348,2530
55.8057,2794
55.8766,2812
55.9475,2729
56.0184,2820
56.08929,2703
56.1602,2859
56.2311,2738
56.302,2838
56.3729,2799
56.4438,2836
56.5147,2822
56.5856,2750
56.6565,2849
56.7274,2929
56.7984,2916
56.8693,2893
56.9402,3033
57.0111,3060
57.082,3104
57.1529,3069
57.2238,3093
57.2947,3093
57.3656,3429
57.4365,3412
57.5074,3453
57.5783,3746
57.6492,4164
57.7201,4471
57.791,5061
57.862,5806
57.9329,7003
58.0038,8290
58.0747,9193
58.1456,9982
58.2165,9908
58.2874,9348
58.3583,8380
58.4292,7165
58.5001,6150
58.571,5122
58.6419,4585
58.7128,4072
58.7837,3862
58.8546,3639
58.9256,3404
58.9965,3336
59.0674,3287
59.1383,3142
59.2092,3237
59.2801,3141
59.351,3087
59.4219,3079
59.4928,3031
59.5637,3044
59.63462,2915
59.7055,2948
59.7764,2951
59.8473,3068
59.9182,2947
59.9892,3001
60.0601,2908
60.131,3006
60.2019,2910
60.2728,2998
60.3437,2974
60.4146,2951
60.4855,3020
60.5564,2951
60.6273,2935
60.6982,2984
60.7691,2986
60.84,3038
60.9109,3025
60.9818,2935
61.0528,2936
61.1237,2955
61.1946,2962
61.2655,3008
61.3364,2938
61.4073,2970
61.4782,3057
61.5491,3082
61.62,2947
61.6909,2960
61.7618,3084
61.8327,3016
61.9036,2987
61.9745,3087
62.0454,3025
62.1164,3047
62.1873,3056
62.2582,3100
62.3291,3156
62.4,3078
62.4709,3068
62.5418,3122
62.6127,3075
62.6836,3083
62.7545,2953
62.8254,3130
62.8963,3101
62.9672,3157
63.0381,3002
63.109,3047
63.17995,2992
63.2509,3017
63.3218,2976
63.3927,3063
63.4636,2962
63.5345,3023
63.6054,2982
63.6763,3019
63.7472,2966
63.8181,2998
63.889,2941
63.9599,2948
64.0308,2982
64.1017,2943
64.1726,2995
64.2435,2958
64.3145,3016
64.3854,2924
64.4563,2885
64.5272,2991
64.5981,2851
64.669,2881
64.7399,2917
64.8108,2867
64.8817,3008
64.9526,2906
65.0235,2861
65.0944,2935
65.1653,2864
65.2362,2856
65.3071,2975
65.3781,2941
65.449,2786
65.5199,2844
65.5908,2821
65.6617,2863
65.7326,2838
65.8035,2876
65.8744,2871
65.9453,2836
66.0162,2849
66.0871,2784
66.158,2890
66.2289,2860
66.2998,2875
66.3707,2837
66.4417,2950
66.5126,2866
66.5835,2866
66.6544,2897
66.72528,2830
66.7962,2882
66.8671,2860
66.938,2936
67.0089,2849
67.0798,2890
67.1507,3001
67.2216,2799
67.2925,2867
67.3634,3048
67.4343,3041
67.5053,2897
67.5762,2905
67.6471,3067
67.718,2983
67.7889,2946
67.8598,3010
67.9307,3101
68.0016,3107
68.0725,3160
68.1434,3133
68.2143,3207
68.2852,3245
68.3561,3371
68.427,3471
68.4979,3564
68.5689,3631
68.6398,3892
68.7107,4149
68.7816,4679
68.8525,5427
68.9234,5938
68.9943,6823
69.0652,8625
69.1361,10166
69.207,12246
69.2779,13449
69.3488,13992
69.4197,12792
69.4906,11719
69.5615,9865
69.6325,8133
69.7034,6703
69.7743,5545
69.8452,4908
69.9161,4219
69.987,3945
70.0579,3664
70.1288,3444
70.1997,3426
70.27061,3254
70.3415,3181
70.4124,3147
70.4833,3202
70.5542,3078
70.6251,3028
70.696,2998
70.767,3049
70.8379,2987
70.9088,2921
70.9797,2912
71.0506,2882
71.1215,3036
71.1924,2965
71.2633,2821
71.3342,2939
71.4051,2712
71.476,2944
71.5469,2901
71.6178,2907
71.6887,2845
71.7596,2781
71.8306,2933
71.9015,2863
71.9724,2774
72.0433,2862
72.1142,2802
72.1851,2791
72.256,2824
72.3269,2854
72.3978,2790
72.4687,2814
72.5396,2897
72.6105,2805
72.6814,2815
72.7523,2874
72.8232,2837
72.8942,2775
72.9651,2838
73.036,2834
73.1069,2792
73.1778,2756
73.2487,2857
73.3196,2864
73.3905,2731
73.4614,2740
73.5323,2965
73.6032,2836
73.6741,2756
73.745,2844
73.81594,2842
73.8868,2895
73.9578,2932
74.0287,2832
74.0996,2798
74.1705,2784
74.2414,2868
74.3123,2911
74.3832,2783
74.4541,2923
74.525,2822
74.5959,2951
74.6668,2889
74.7377,2812
74.8086,2925
74.8795,2963
74.9504,3051
75.0214,2935
75.0923,2841
75.1632,3078
75.2341,2927
75.305,2986
75.3759,3030
75.4468,2973
75.5177,3018
75.5886,2961
75.6595,3072
75.7304,2989
75.8013,3022
75.8722,2923
75.9431,3099
76.014,3033
76.085,3073
76.1559,2979
76.2268,3054
76.2977,3054
76.3686,3049
76.4395,3043
76.5104,3123
76.5813,3195
76.6522,3069
76.7231,3281
76.794,3273
76.8649,3284
76.9358,3309
77.0067,3373
77.0776,3553
77.1486,3439
77.2195,3661
77.2904,3689
77.36127,3887
77.4322,4169
77.5031,4319
77.574,4732
77.6449,5230
77.7158,5799
77.7867,7112
77.8576,8083
77.9285,9477
77.9994,11258
78.0703,12412
78.1412,13396
78.2121,13392
78.2831,12514
78.354,11578
78.4249,10257
78.4958,8840
78.5667,7680
78.6376,6321
78.7085,5600
78.7794,5023
78.8503,4537
78.9212,4247
78.9921,4016
79.063,3809
79.1339,3660
79.2048,3496
79.2757,3622
79.3467,3504
79.4176,3410
79.4885,3402
79.5594,3284
79.6303,3338
79.7012,3286
79.7721,3226
79.843,3203
79.9139,3229
79.9848,3205
80.0557,3208
80.1266,3285
80.1975,3196
80.2684,3084
80.3393,3217
80.4103,3117
80.4812,3196
80.5521,3111
80.623,3303
80.6939,3188
80.7648,3178
80.8357,3227
80.9066,3131
80.9775,3133
81.0484,3206
81.1193,3213
81.1902,3260
81.2611,3233
81.332,3284
81.4029,3227
81.4739,3307
81.5448,3359
81.6157,3442
81.6866,3592
81.7575,3592
81.8284,3893
81.8993,4201
81.9702,4403
82.0411,4772
82.112,4850
82.1829,4952
82.2538,4851
82.3247,4688
82.3956,4391
82.4665,4138
82.5375,3905
82.6084,3598
82.6793,3701
82.7502,3672
82.8211,3448
82.892,3534
82.9629,3450
83.0338,3458
83.1047,3419
83.1756,3550
83.2465,3510
83.3174,3470
83.3883,3601
83.4592,3489
83.5301,3752
83.6011,3975
83.672,4038
83.7429,4149
83.8138,4326
83.8847,4735
83.9556,4984
84.0265,5740
84.0974,6552
84.1683,7577
84.2392,9279
84.3101,11141
84.381,13244
84.45193,14616
84.5228,15645
84.5937,15584
84.6646,15023
84.7356,13650
84.8065,11921
84.8774,10499
84.9483,8989
85.0192,7788
85.0901,6867
85.161,6166
85.2319,6094
85.3028,6042
85.3737,6117
85.4446,6660
85.5155,7555
85.5864,8602
85.6573,9976
85.7282,11422
85.7992,11917
85.8701,12250
85.941,12108
86.0119,11224
86.0828,10033
86.1537,8825
86.2246,7733
86.2955,6661
86.3664,5764
86.4373,5048
86.5082,4532
86.5791,4214
86.65,3955
86.7209,3750
86.7918,3635
86.8628,3611
86.9337,3427
87.0046,3396
87.0755,3349
87.1464,3243
87.2173,3202
87.2882,3179
87.3591,3055
87.43,3245
87.5009,3132
87.5718,3103
87.6427,3082
87.7136,3119
87.7845,2952
87.8554,3206
87.9264,3039
87.99726,3020
88.0682,2983
88.1391,2945
88.21,3004
88.2809,2988
88.3518,2879
88.4227,2935
88.4936,2958
88.5645,2958
88.6354,2969
88.7063,2907
88.7772,2914
88.8481,2956
88.919,2863
88.99,2937
89.0609,2864
89.1318,2861
89.2027,2895
89.2736,2937
89.3445,2894
89.4154,2887
89.4863,2916
89.5572,2867
89.6281,2984
89.699,2873
89.7699,2904
89.8408,2874
89.9117,2856
89.9826,2873
90.0181,2865