File: data/XRD_raw_spectra/XRD_Ru-Pt-Pd-Ir-Rh.xy
'Id: "" Comment: "" Operator: "Lab Manager" Anode: "Cu" Scantype: "Coupled TwoTheta/Theta" TimePerStep: "28.8"
5 3.64583
5.05947 3.26389
5.11894 3.61111
5.17841 3.78472
5.23788 2.77778
5.29735 2.98611
5.35682 3.33333
5.41629 2.98611
5.47576 3.36806
5.53523 2.67361
5.5947 2.67361
5.65417 2.84722
5.71364 3.05556
5.77311 2.5
5.83258 2.60417
5.89205 2.88194
5.95152 3.02083
6.01099 3.19444
6.07046 2.08333
6.12993 2.56944
6.1894 2.53472
6.24887 2.95139
6.30834 2.1875
6.36781 2.25694
6.42728 2.39583
6.48675 2.25694
6.54622 1.42361
6.60569 1.97917
6.66516 2.39583
6.72463 2.70833
6.7841 2.39583
6.84357 2.25694
6.90304 2.36111
6.96251 2.32639
7.02198 2.01389
7.08145 2.25694
7.14092 2.1875
7.20038 2.22222
7.25985 2.04861
7.31932 1.97917
7.37879 1.97917
7.43826 1.84028
7.49773 1.875
7.5572 2.15278
7.61667 2.11806
7.67614 1.90972
7.73561 1.875
7.79508 1.97917
7.85455 2.1875
7.91402 1.90972
7.97349 2.25694
8.03296 2.39583
8.09243 2.25694
8.1519 2.15278
8.21137 2.22222
8.27084 2.5
8.33031 1.90972
8.38978 1.84028
8.44925 2.43056
8.50872 2.32639
8.56819 2.22222
8.62766 1.94444
8.68713 2.15278
8.7466 1.63194
8.80607 1.77083
8.86554 1.73611
8.92501 1.94444
8.98448 2.43056
9.04395 2.36111
9.10342 2.56944
9.16289 1.94444
9.22236 2.08333
9.28183 2.11806
9.3413 1.73611
9.40077 2.5
9.46024 2.08333
9.51971 1.94444
9.57918 2.32639
9.63865 2.43056
9.69812 1.45833
9.75759 2.1875
9.81706 2.32639
9.87653 1.94444
9.936 2.67361
9.99547 2.15278
10.0549 2.5
10.1144 2.32639
10.1739 2.84722
10.2333 2.1875
10.2928 2.29167
10.3523 2.39583
10.4118 2.04861
10.4712 2.29167
10.5307 2.67361
10.5902 2.01389
10.6496 1.97917
10.7091 2.74306
10.7686 2.08333
10.828 2.36111
10.8875 2.70833
10.947 2.39583
11.0065 2.43056
11.0659 2.60417
11.1254 2.70833
11.1849 2.25694
11.2443 2.08333
11.3038 2.5
11.3633 2.04861
11.4227 2.70833
11.4822 2.04861
11.5417 2.98611
11.6012 2.77778
11.6606 3.05556
11.7201 2.36111
11.7796 2.56944
11.839 2.22222
11.8985 2.56944
11.958 2.46528
12.0174 2.39583
12.0769 2.46528
12.1364 2.25694
12.1959 2.84722
12.2553 3.125
12.3148 2.84722
12.3743 2.70833
12.4337 2.22222
12.4932 2.43056
12.5527 2.46528
12.6121 2.39583
12.6716 2.67361
12.7311 2.08333
12.7906 2.1875
12.85 2.67361
12.9095 2.53472
12.969 3.26389
13.0284 2.39583
13.0879 2.77778
13.1474 3.02083
13.2068 2.77778
13.2663 2.74306
13.3258 2.70833
13.3853 3.36806
13.4447 2.8125
13.5042 2.53472
13.5637 3.125
13.6231 3.15972
13.6826 2.95139
13.7421 3.125
13.8015 2.74306
13.861 2.56944
13.9205 3.22917
13.9799 3.22917
14.0394 3.02083
14.0989 3.125
14.1584 3.02083
14.2178 2.5
14.2773 2.70833
14.3368 3.47222
14.3962 2.84722
14.4557 2.36111
14.5152 3.125
14.5746 3.09028
14.6341 3.22917
14.6936 2.74306
14.7531 3.02083
14.8125 2.1875
14.872 3.29861
14.9315 3.47222
14.9909 3.88889
15.0504 3.64583
15.1099 2.91667
15.1693 3.64583
15.2288 3.29861
15.2883 3.40278
15.3478 3.57639
15.4072 3.29861
15.4667 3.64583
15.5262 3.40278
15.5856 3.22917
15.6451 3.36806
15.7046 3.15972
15.764 3.88889
15.8235 4.27083
15.883 4.16667
15.9425 3.92361
16.0019 3.40278
16.0614 4.02778
16.1209 3.92361
16.1803 4.13194
16.2398 3.81944
16.2993 4.51389
16.3587 4.13194
16.4182 4.44444
16.4777 3.78472
16.5372 3.50694
16.5966 4.09722
16.6561 3.85417
16.7156 4.34028
16.775 3.36806
16.8345 3.92361
16.894 3.95833
16.9534 3.95833
17.0129 4.0625
17.0724 4.02778
17.1319 4.375
17.1913 4.72222
17.2508 4.82639
17.3103 5.03472
17.3697 4.96528
17.4292 4.16667
17.4887 4.72222
17.5481 4.47917
17.6076 5.10417
17.6671 4.75694
17.7266 4.86111
17.786 4.72222
17.8455 4.375
17.905 5.27778
17.9644 4.65278
18.0239 5.55556
18.0834 4.72222
18.1428 4.61806
18.2023 6.07639
18.2618 5.10417
18.3212 5.20833
18.3807 5.38194
18.4402 5.27778
18.4997 5.59028
18.5591 4.375
18.6186 4.6875
18.6781 5.69444
18.7375 6.21528
18.797 5.52083
18.8565 5.79861
18.9159 6.25
18.9754 5.27778
19.0349 6.28472
19.0944 5.76389
19.1538 6.00694
19.2133 6.14583
19.2728 5.20833
19.3322 5.69444
19.3917 5.97222
19.4512 5
19.5106 5.625
19.5701 6.25
19.6296 6.31944
19.6891 5.79861
19.7485 6.14583
19.808 6.49306
19.8675 6.07639
19.9269 6.11111
19.9864 5.79861
20.0459 5.90278
20.1053 6.35417
20.1648 6.07639
20.2243 6.11111
20.2838 7.01389
20.3432 5.97222
20.4027 6.28472
20.4622 6.70139
20.5216 5.79861
20.5811 5.55556
20.6406 6.90972
20.7 6.21528
20.7595 7.22222
20.819 6.49306
20.8785 7.1875
20.9379 6.66667
20.9974 6.35417
21.0569 6.38889
21.1163 6.52778
21.1758 7.88194
21.2353 6.77083
21.2947 6.28472
21.3542 5.83333
21.4137 6.875
21.4732 7.22222
21.5326 6.42361
21.5921 6.52778
21.6516 6.45833
21.711 7.63889
21.7705 6.38889
21.83 6.66667
21.8894 6.90972
21.9489 7.01389
22.0084 6.80556
22.0679 6.45833
22.1273 6.59722
22.1868 6.42361
22.2463 6.04167
22.3057 5.69444
22.3652 6.07639
22.4247 5.59028
22.4841 6.84028
22.5436 6.875
22.6031 6.45833
22.6625 6.70139
22.722 5.90278
22.7815 5.59028
22.841 5.72917
22.9004 7.46528
22.9599 5.52083
23.0194 6.25
23.0788 7.08333
23.1383 6.49306
23.1978 5.86806
23.2572 6.70139
23.3167 6.04167
23.3762 6.35417
23.4357 5.90278
23.4951 6.28472
23.5546 6.97917
23.6141 6.31944
23.6735 5.65972
23.733 5.97222
23.7925 5.59028
23.8519 5.59028
23.9114 5.83333
23.9709 5.86806
24.0304 6.07639
24.0898 5.86806
24.1493 5.9375
24.2088 5.41667
24.2682 5.45139
24.3277 5.10417
24.3872 6.04167
24.4466 5.06944
24.5061 5.17361
24.5656 6.14583
24.6251 5.625
24.6845 5.45139
24.744 4.23611
24.8035 5.13889
24.8629 4.93056
24.9224 4.86111
24.9819 5.625
25.0413 5.17361
25.1008 5.10417
25.1603 5.13889
25.2198 4.89583
25.2792 5.13889
25.3387 4.44444
25.3982 5.17361
25.4576 5.79861
25.5171 4.86111
25.5766 4.65278
25.636 5.17361
25.6955 4.86111
25.755 4.79167
25.8145 4.61806
25.8739 4.47917
25.9334 4.75694
25.9929 5.10417
26.0523 4.58333
26.1118 5.41667
26.1713 4.75694
26.2307 5
26.2902 4.40972
26.3497 4.65278
26.4092 4.93056
26.4686 4.58333
26.5281 4.58333
26.5876 5.13889
26.647 4.86111
26.7065 3.88889
26.766 4.30556
26.8254 4.54861
26.8849 3.85417
26.9444 3.81944
27.0038 4.65278
27.0633 4.72222
27.1228 4.09722
27.1823 4.34028
27.2417 4.27083
27.3012 3.78472
27.3607 4.27083
27.4201 4.40972
27.4796 5.10417
27.5391 4.16667
27.5985 3.95833
27.658 4.23611
27.7175 3.95833
27.777 4.44444
27.8364 4.44444
27.8959 4.61806
27.9554 3.68056
28.0148 4.23611
28.0743 4.16667
28.1338 4.27083
28.1932 3.81944
28.2527 3.4375
28.3122 4.09722
28.3717 3.64583
28.4311 4.09722
28.4906 4.16667
28.5501 3.99306
28.6095 4.13194
28.669 3.78472
28.7285 3.95833
28.7879 4.65278
28.8474 3.99306
28.9069 3.61111
28.9664 4.16667
29.0258 4.51389
29.0853 4.02778
29.1448 3.64583
29.2042 3.81944
29.2637 3.64583
29.3232 3.85417
29.3826 3.95833
29.4421 3.78472
29.5016 4.20139
29.5611 4.44444
29.6205 3.22917
29.68 3.64583
29.7395 3.50694
29.7989 3.47222
29.8584 3.47222
29.9179 4.40972
29.9773 3.09028
30.0368 3.68056
30.0963 3.99306
30.1558 4.30556
30.2152 4.20139
30.2747 4.0625
30.3342 3.64583
30.3936 3.33333
30.4531 4.02778
30.5126 3.54167
30.572 3.19444
30.6315 3.81944
30.691 2.8125
30.7505 3.29861
30.8099 3.64583
30.8694 3.22917
30.9289 4.34028
30.9883 2.91667
31.0478 3.81944
31.1073 3.88889
31.1667 3.92361
31.2262 3.95833
31.2857 3.61111
31.3451 4.0625
31.4046 3.22917
31.4641 3.78472
31.5236 3.47222
31.583 3.95833
31.6425 3.92361
31.702 3.78472
31.7614 4.0625
31.8209 3.4375
31.8804 3.54167
31.9398 3.92361
31.9993 3.15972
32.0588 3.15972
32.1183 3.09028
32.1777 4.09722
32.2372 2.88194
32.2967 3.33333
32.3561 3.09028
32.4156 3.19444
32.4751 4.02778
32.5345 3.125
32.594 4.09722
32.6535 3.88889
32.713 3.47222
32.7724 3.68056
32.8319 3.88889
32.8914 3.47222
32.9508 2.91667
33.0103 3.02083
33.0698 3.71528
33.1292 3.88889
33.1887 3.40278
33.2482 3.33333
33.3077 2.95139
33.3671 2.91667
33.4266 3.78472
33.4861 3.47222
33.5455 3.81944
33.605 4.09722
33.6645 3.29861
33.7239 3.50694
33.7834 3.88889
33.8429 4.27083
33.9024 3.61111
33.9618 3.15972
34.0213 3.22917
34.0808 3.09028
34.1402 3.26389
34.1997 3.19444
34.2592 2.84722
34.3186 4.20139
34.3781 3.54167
34.4376 3.95833
34.4971 3.61111
34.5565 3.22917
34.616 3.75
34.6755 3.75
34.7349 3.68056
34.7944 3.92361
34.8539 3.40278
34.9133 4.30556
34.9728 2.95139
35.0323 3.15972
35.0918 3.81944
35.1512 4.13194
35.2107 4.02778
35.2702 4.0625
35.3296 4.27083
35.3891 3.57639
35.4486 3.26389
35.508 5.27778
35.5675 3.88889
35.627 3.02083
35.6864 3.29861
35.7459 3.29861
35.8054 3.57639
35.8649 3.19444
35.9243 3.68056
35.9838 3.4375
36.0433 3.26389
36.1027 3.71528
36.1622 3.95833
36.2217 3.81944
36.2811 4.02778
36.3406 4.51389
36.4001 3.15972
36.4596 3.71528
36.519 4.02778
36.5785 3.92361
36.638 3.47222
36.6974 3.47222
36.7569 4.20139
36.8164 3.78472
36.8758 3.81944
36.9353 3.92361
36.9948 4.09722
37.0543 3.92361
37.1137 4.34028
37.1732 4.0625
37.2327 4.16667
37.2921 3.99306
37.3516 3.99306
37.4111 4.54861
37.4705 4.375
37.53 4.58333
37.5895 3.85417
37.649 3.75
37.7084 4.72222
37.7679 4.86111
37.8274 4.6875
37.8868 4.23611
37.9463 5.17361
38.0058 4.40972
38.0652 5.06944
38.1247 5.06944
38.1842 5.38194
38.2437 5.24306
38.3031 5.24306
38.3626 5.72917
38.4221 6.04167
38.4815 5.38194
38.541 5.79861
38.6005 6.63194
38.6599 5.52083
38.7194 6.59722
38.7789 6.38889
38.8384 7.11806
38.8978 6.94444
38.9573 7.74306
39.0168 7.56944
39.0762 7.67361
39.1357 8.47222
39.1952 8.99306
39.2546 10.1736
39.3141 8.61111
39.3736 10.0347
39.4331 12.1875
39.4925 11.1458
39.552 11.9444
39.6115 12.0486
39.6709 12.7083
39.7304 12.9861
39.7899 13.9583
39.8493 13.5417
39.9088 14.6875
39.9683 15.625
40.0277 15.9375
40.0872 15.4514
40.1467 17.1875
40.2062 17.0833
40.2656 18.125
40.3251 17.7431
40.3846 18.8542
40.444 17.4306
40.5035 16.8403
40.563 16.5278
40.6224 17.6389
40.6819 18.0903
40.7414 16.9097
40.8009 15.7639
40.8603 16.8403
40.9198 15.9722
40.9793 14.9306
41.0387 14.7917
41.0982 16.4931
41.1577 14.2708
41.2171 13.4375
41.2766 13.8194
41.3361 12.3611
41.3956 11.5625
41.455 11.2153
41.5145 9.79167
41.574 10.7292
41.6334 9.72222
41.6929 8.78472
41.7524 8.85417
41.8118 8.85417
41.8713 8.50694
41.9308 7.98611
41.9903 7.11806
42.0497 8.47222
42.1092 6.35417
42.1687 6.59722
42.2281 6.70139
42.2876 6.42361
42.3471 6.21528
42.4065 5.625
42.466 4.89583
42.5255 4.86111
42.585 5.90278
42.6444 5.34722
42.7039 5.52083
42.7634 4.375
42.8228 5
42.8823 4.51389
42.9418 3.88889
43.0012 4.40972
43.0607 4.86111
43.1202 3.78472
43.1797 4.34028
43.2391 4.72222
43.2986 5.03472
43.3581 4.51389
43.4175 3.64583
43.477 3.71528
43.5365 4.86111
43.5959 4.27083
43.6554 3.50694
43.7149 3.75
43.7744 4.02778
43.8338 4.23611
43.8933 4.27083
43.9528 3.36806
44.0122 3.68056
44.0717 3.95833
44.1312 4.30556
44.1906 4.16667
44.2501 4.0625
44.3096 3.71528
44.369 3.85417
44.4285 3.36806
44.488 3.47222
44.5475 3.68056
44.6069 3.81944
44.6664 3.88889
44.7259 4.34028
44.7853 3.81944
44.8448 4.375
44.9043 4.16667
44.9637 3.92361
45.0232 4.16667
45.0827 3.95833
45.1422 3.54167
45.2016 4.51389
45.2611 3.95833
45.3206 4.44444
45.38 4.40972
45.4395 4.58333
45.499 4.54861
45.5584 4.13194
45.6179 4.75694
45.6774 4.82639
45.7369 4.61806
45.7963 4.86111
45.8558 4.75694
45.9153 5.65972
45.9747 5.13889
46.0342 4.93056
46.0937 5.41667
46.1531 5.55556
46.2126 5.83333
46.2721 6.18056
46.3316 6.18056
46.391 5.48611
46.4505 6.38889
46.51 7.04861
46.5694 7.53472
46.6289 6.77083
46.6884 6.97917
46.7478 6.45833
46.8073 7.53472
46.8668 7.32639
46.9263 6.63194
46.9857 6.97917
47.0452 7.36111
47.1047 7.39583
47.1641 7.32639
47.2236 7.11806
47.2831 7.15278
47.3425 7.04861
47.402 7.01389
47.4615 6.49306
47.521 6.31944
47.5804 7.04861
47.6399 6.14583
47.6994 6.45833
47.7588 5.97222
47.8183 5.41667
47.8778 6.38889
47.9372 5.38194
47.9967 5.13889
48.0562 4.72222
48.1157 5.24306
48.1751 5.13889
48.2346 4.44444
48.2941 3.95833
48.3535 5.10417
48.413 3.54167
48.4725 3.4375
48.5319 3.15972
48.5914 3.95833
48.6509 4.13194
48.7103 3.05556
48.7698 3.26389
48.8293 3.26389
48.8888 3.125
48.9482 3.22917
49.0077 3.29861
49.0672 2.88194
49.1266 2.88194
49.1861 2.74306
49.2456 3.64583
49.305 2.32639
49.3645 3.19444
49.424 2.91667
49.4835 2.63889
49.5429 2.01389
49.6024 3.26389
49.6619 2.36111
49.7213 2.25694
49.7808 2.63889
49.8403 2.43056
49.8997 1.80556
49.9592 2.5
50.0187 2.53472
50.0782 1.52778
50.1376 2.29167
50.1971 2.67361
50.2566 2.95139
50.316 2.5
50.3755 1.94444
50.435 2.36111
50.4944 2.01389
50.5539 2.04861
50.6134 1.77083
50.6729 1.90972
50.7323 2.01389
50.7918 2.11806
50.8513 1.90972
50.9107 2.36111
50.9702 1.63194
51.0297 1.80556
51.0891 2.1875
51.1486 2.11806
51.2081 2.15278
51.2676 1.70139
51.327 2.04861
51.3865 1.73611
51.446 2.32639
51.5054 1.70139
51.5649 1.875
51.6244 2.04861
51.6838 2.01389
51.7433 1.84028
51.8028 1.97917
51.8623 2.25694
51.9217 1.35417
51.9812 1.84028
52.0407 1.90972
52.1001 2.22222
52.1596 2.01389
52.2191 1.90972
52.2785 2.01389
52.338 1.90972
52.3975 1.90972
52.457 1.94444
52.5164 1.52778
52.5759 1.21528
52.6354 1.73611
52.6948 2.04861
52.7543 1.97917
52.8138 1.70139
52.8732 1.90972
52.9327 2.01389
52.9922 1.25
53.0516 1.70139
53.1111 2.25694
53.1706 1.94444
53.2301 1.66667
53.2895 1.66667
53.349 1.80556
53.4085 1.49306
53.4679 1.84028
53.5274 2.01389
53.5869 1.49306
53.6463 1.875
53.7058 2.11806
53.7653 1.70139
53.8248 1.59722
53.8842 1.94444
53.9437 1.97917
54.0032 2.25694
54.0626 1.84028
54.1221 1.875
54.1816 1.42361
54.241 1.45833
54.3005 2.08333
54.36 1.66667
54.4195 2.11806
54.4789 2.01389
54.5384 2.15278
54.5979 2.04861
54.6573 1.49306
54.7168 1.52778
54.7763 1.70139
54.8357 1.52778
54.8952 1.77083
54.9547 1.875
55.0142 2.36111
55.0736 1.80556
55.1331 1.63194
55.1926 1.38889
55.252 1.35417
55.3115 1.5625
55.371 2.08333
55.4304 1.875
55.4899 1.66667
55.5494 1.14583
55.6089 1.80556
55.6683 1.66667
55.7278 2.04861
55.7873 1.94444
55.8467 1.5625
55.9062 1.97917
55.9657 1.59722
56.0251 1.94444
56.0846 1.45833
56.1441 1.94444
56.2036 1.77083
56.263 1.38889
56.3225 1.66667
56.382 2.01389
56.4414 1.80556
56.5009 1.66667
56.5604 1.875
56.6198 1.94444
56.6793 2.08333
56.7388 1.875
56.7983 1.66667
56.8577 1.45833
56.9172 1.5625
56.9767 2.11806
57.0361 1.80556
57.0956 1.42361
57.1551 1.73611
57.2145 1.66667
57.274 1.84028
57.3335 1.84028
57.3929 1.49306
57.4524 1.94444
57.5119 1.5625
57.5714 1.45833
57.6308 1.77083
57.6903 1.73611
57.7498 1.70139
57.8092 1.84028
57.8687 1.63194
57.9282 2.15278
57.9876 1.97917
58.0471 1.70139
58.1066 1.63194
58.1661 1.5625
58.2255 1.70139
58.285 2.1875
58.3445 2.11806
58.4039 1.70139
58.4634 1.84028
58.5229 1.90972
58.5823 2.04861
58.6418 2.5
58.7013 1.80556
58.7608 2.29167
58.8202 1.63194
58.8797 2.1875
58.9392 1.70139
58.9986 1.63194
59.0581 1.63194
59.1176 1.5625
59.177 2.25694
59.2365 1.42361
59.296 1.31944
59.3555 1.84028
59.4149 1.875
59.4744 2.60417
59.5339 2.22222
59.5933 2.15278
59.6528 1.80556
59.7123 2.29167
59.7717 1.70139
59.8312 2.04861
59.8907 2.36111
59.9502 2.08333
60.0096 2.36111
60.0691 1.77083
60.1286 2.29167
60.188 2.04861
60.2475 1.5625
60.307 1.97917
60.3664 2.01389
60.4259 2.01389
60.4854 1.25
60.5449 1.84028
60.6043 1.90972
60.6638 2.25694
60.7233 1.28472
60.7827 2.01389
60.8422 2.01389
60.9017 1.90972
60.9611 1.70139
61.0206 2.04861
61.0801 2.08333
61.1396 2.01389
61.199 1.97917
61.2585 2.04861
61.318 2.08333
61.3774 2.04861
61.4369 2.39583
61.4964 2.08333
61.5558 1.875
61.6153 1.49306
61.6748 1.52778
61.7343 2.29167
61.7937 2.01389
61.8532 1.90972
61.9127 1.90972
61.9721 1.77083
62.0316 2.56944
62.0911 1.66667
62.1505 1.70139
62.21 1.97917
62.2695 2.5
62.3289 2.15278
62.3884 1.90972
62.4479 2.01389
62.5074 2.43056
62.5668 2.43056
62.6263 1.97917
62.6858 2.36111
62.7452 1.875
62.8047 2.43056
62.8642 2.01389
62.9236 1.94444
62.9831 2.22222
63.0426 1.97917
63.1021 1.49306
63.1615 1.59722
63.221 2.43056
63.2805 1.80556
63.3399 2.11806
63.3994 2.29167
63.4589 2.11806
63.5183 1.94444
63.5778 2.04861
63.6373 2.67361
63.6968 1.97917
63.7562 2.01389
63.8157 2.36111
63.8752 1.94444
63.9346 2.08333
63.9941 1.90972
64.0536 1.84028
64.113 1.84028
64.1725 1.73611
64.232 1.5625
64.2915 2.15278
64.3509 1.875
64.4104 1.94444
64.4699 2.01389
64.5293 1.84028
64.5888 2.04861
64.6483 2.04861
64.7077 2.01389
64.7672 2.39583
64.8267 1.73611
64.8862 1.80556
64.9456 1.77083
65.0051 1.97917
65.0646 2.04861
65.124 2.36111
65.1835 1.84028
65.243 1.875
65.3024 2.25694
65.3619 1.80556
65.4214 2.11806
65.4809 2.46528
65.5403 1.875
65.5998 2.15278
65.6593 2.11806
65.7187 2.36111
65.7782 1.94444
65.8377 1.66667
65.8971 1.49306
65.9566 2.39583
66.0161 1.77083
66.0756 2.11806
66.135 2.25694
66.1945 2.25694
66.254 2.08333
66.3134 1.80556
66.3729 1.73611
66.4324 2.11806
66.4918 1.90972
66.5513 1.97917
66.6108 2.25694
66.6702 1.97917
66.7297 1.875
66.7892 1.80556
66.8487 2.08333
66.9081 2.84722
66.9676 2.22222
67.0271 2.39583
67.0865 2.32639
67.146 2.11806
67.2055 2.60417
67.2649 2.43056
67.3244 2.77778
67.3839 2.88194
67.4434 2.77778
67.5028 2.46528
67.5623 2.77778
67.6218 2.56944
67.6812 2.53472
67.7407 2.36111
67.8002 3.05556
67.8596 2.63889
67.9191 2.56944
67.9786 2.36111
68.0381 2.8125
68.0975 3.26389
68.157 3.50694
68.2165 3.19444
68.2759 3.4375
68.3354 2.91667
68.3949 3.92361
68.4543 2.56944
68.5138 3.61111
68.5733 3.68056
68.6328 3.64583
68.6922 3.47222
68.7517 3.19444
68.8112 2.88194
68.8706 3.15972
68.9301 3.22917
68.9896 3.05556
69.049 3.64583
69.1085 3.40278
69.168 4.09722
69.2275 2.70833
69.2869 2.91667
69.3464 2.43056
69.4059 3.40278
69.4653 3.15972
69.5248 3.47222
69.5843 3.15972
69.6437 3.68056
69.7032 2.8125
69.7627 2.88194
69.8222 2.36111
69.8816 2.74306
69.9411 2.74306
70.0006 2.1875
70.06 3.125
70.1195 2.74306
70.179 2.5
70.2384 2.36111
70.2979 2.70833
70.3574 2.08333
70.4169 1.94444
70.4763 1.77083
70.5358 2.43056
70.5953 1.90972
70.6547 2.04861
70.7142 2.1875
70.7737 2.29167
70.8331 1.63194
70.8926 1.80556
70.9521 2.39583
71.0115 1.80556
71.071 2.1875
71.1305 1.49306
71.19 1.59722
71.2494 1.63194
71.3089 1.80556
71.3684 1.77083
71.4278 1.80556
71.4873 1.5625
71.5468 1.90972
71.6062 1.49306
71.6657 2.01389
71.7252 1.66667
71.7847 1.42361
71.8441 1.28472
71.9036 1.84028
71.9631 1.875
72.0225 1.07639
72.082 1.73611
72.1415 1.97917
72.2009 1.31944
72.2604 1.66667
72.3199 1.52778
72.3794 1.38889
72.4388 1.42361
72.4983 1.84028
72.5578 1.18056
72.6172 1.21528
72.6767 1.73611
72.7362 1.21528
72.7956 1.28472
72.8551 1.25
72.9146 1.07639
72.9741 1.45833
73.0335 1.52778
73.093 1.5625
73.1525 1.35417
73.2119 1.18056
73.2714 1.18056
73.3309 1.45833
73.3903 1.49306
73.4498 1.35417
73.5093 1.5625
73.5688 1.52778
73.6282 1.18056
73.6877 1.45833
73.7472 1.59722
73.8066 1.21528
73.8661 1.14583
73.9256 1.49306
73.985 1.14583
74.0445 1.31944
74.104 1.73611
74.1635 1.07639
74.2229 1.25
74.2824 1.49306
74.3419 1.59722
74.4013 1.28472
74.4608 1.25
74.5203 1.38889
74.5797 1.38889
74.6392 1.42361
74.6987 1.38889
74.7582 1.52778
74.8176 1.35417
74.8771 1.31944
74.9366 1.11111
74.996 1.84028
75.0555 1.42361
75.115 1.28472
75.1744 1.73611
75.2339 1.59722
75.2934 1.21528
75.3528 1.21528
75.4123 1.5625
75.4718 1.35417
75.5313 1.18056
75.5907 1.14583
75.6502 1.77083
75.7097 1.28472
75.7691 1.31944
75.8286 1.04167
75.8881 1.5625
75.9475 0.868056
76.007 1.45833
76.0665 1.14583
76.126 1.42361
76.1854 1.73611
76.2449 1.14583
76.3044 1.59722
76.3638 1.73611
76.4233 1.04167
76.4828 1.31944
76.5422 1.42361
76.6017 1.45833
76.6612 1.63194
76.7207 1.38889
76.7801 1.14583
76.8396 1.38889
76.8991 1.35417
76.9585 1.66667
77.018 1.63194
77.0775 1.11111
77.1369 0.9375
77.1964 1.14583
77.2559 1.18056
77.3154 1.18056
77.3748 1.77083
77.4343 1.63194
77.4938 1.38889
77.5532 1.21528
77.6127 1.04167
77.6722 1.31944
77.7316 1.63194
77.7911 1.38889
77.8506 1.45833
77.9101 1.21528
77.9695 1.5625
78.029 1.45833
78.0885 0.972222
78.1479 1.52778
78.2074 1.52778
78.2669 1.49306
78.3263 1.80556
78.3858 1.80556
78.4453 1.49306
78.5048 1.14583
78.5642 1.77083
78.6237 1.42361
78.6832 1.80556
78.7426 1.77083
78.8021 1.70139
78.8616 1.45833
78.921 1.49306
78.9805 1.11111
79.04 1.25
79.0995 1.49306
79.1589 1.31944
79.2184 1.38889
79.2779 1.63194
79.3373 1.21528
79.3968 1.45833
79.4563 1.5625
79.5157 1.63194
79.5752 1.42361
79.6347 1.77083
79.6941 1.66667
79.7536 1.45833
79.8131 1.07639
79.8726 1.14583
79.932 1.49306
79.9915 1.59722
80.0064 1.63194