File: data/XRD_raw_spectra/XRD_Ru-Pt-Pd.csv
10,6604
10.0709,6582
10.1418,6651
10.2127,6625
10.2836,6408
10.3545,6402
10.4254,6428
10.4963,6484
10.5673,6675
10.6382,6436
10.7091,6303
10.78,6368
10.8509,6298
10.9218,6289
10.9927,6260
11.0636,5960
11.1345,6324
11.2054,6153
11.2763,6057
11.3472,5970
11.4181,5798
11.489,5943
11.5599,5977
11.6309,6046
11.7018,5994
11.7727,5717
11.8436,5726
11.9145,5828
11.9854,5670
12.0563,5619
12.1272,5673
12.1981,5545
12.269,5564
12.3399,5493
12.4108,5482
12.4817,5459
12.5526,5310
12.6235,5351
12.6945,5207
12.7654,5225
12.8363,5131
12.9072,5129
12.9781,5098
13.049,5028
13.1199,4871
13.1908,4859
13.2617,4884
13.3326,4725
13.4035,4901
13.4744,4710
13.54533,4580
13.6162,4594
13.6871,4611
13.758,4519
13.829,4577
13.8999,4485
13.9708,4321
14.0417,4386
14.1126,4345
14.1835,4152
14.2544,4284
14.3253,4241
14.3962,4260
14.4671,4096
14.538,4208
14.6089,4258
14.6798,4165
14.7507,4111
14.8216,4166
14.8926,4015
14.9635,4085
15.0344,4043
15.1053,4040
15.1762,4065
15.2471,4123
15.318,4121
15.3889,4088
15.4598,3963
15.5307,4043
15.6016,3954
15.6725,4088
15.7434,3983
15.8143,4011
15.8852,3986
15.9562,3845
16.0271,4028
16.098,3932
16.1689,3777
16.2398,3899
16.3107,3857
16.3816,3816
16.4525,3869
16.5234,3876
16.5943,3825
16.6652,3865
16.7361,3871
16.807,3874
16.8779,3731
16.9488,3800
17.0198,3843
17.09066,3824
17.1616,3833
17.2325,3802
17.3034,3684
17.3743,3786
17.4452,3723
17.5161,3681
17.587,3755
17.6579,3754
17.7288,3711
17.7997,3710
17.8706,3683
17.9415,3702
18.0124,3683
18.0834,3647
18.1543,3608
18.2252,3662
18.2961,3636
18.367,3668
18.4379,3699
18.5088,3621
18.5797,3634
18.6506,3524
18.7215,3734
18.7924,3653
18.8633,3543
18.9342,3634
19.0051,3617
19.076,3548
19.147,3610
19.2179,3440
19.2888,3539
19.3597,3540
19.4306,3557
19.5015,3519
19.5724,3427
19.6433,3447
19.7142,3531
19.7851,3524
19.856,3531
19.9269,3542
19.9978,3457
20.0687,3474
20.1396,3381
20.2106,3500
20.2815,3464
20.3524,3400
20.4233,3447
20.4942,3475
20.5651,3546
20.63599,3413
20.7069,3324
20.7778,3361
20.8487,3435
20.9196,3255
20.9905,3419
21.0614,3423
21.1323,3213
21.2032,3346
21.2741,3394
21.3451,3213
21.416,3351
21.4869,3393
21.5578,3385
21.6287,3442
21.6996,3350
21.7705,3411
21.8414,3375
21.9123,3326
21.9832,3390
22.0541,3342
22.125,3367
22.1959,3337
22.2668,3378
22.3377,3218
22.4087,3401
22.4796,3171
22.5505,3169
22.6214,3206
22.6923,3323
22.7632,3246
22.8341,3335
22.905,3187
22.9759,3174
23.0468,3228
23.1177,3220
23.1886,3197
23.2595,3206
23.3304,3128
23.4013,3326
23.4723,3279
23.5432,3160
23.6141,3140
23.685,3231
23.7559,3209
23.8268,3194
23.8977,3036
23.9686,3212
24.0395,3244
24.1104,3089
24.18132,3096
24.2522,3115
24.3231,3110
24.394,3223
24.4649,3092
24.5359,3251
24.6068,3108
24.6777,3130
24.7486,3125
24.8195,3074
24.8904,3156
24.9613,3124
25.0322,3141
25.1031,3089
25.174,3055
25.2449,3018
25.3158,3062
25.3867,2986
25.4576,3094
25.5285,3078
25.5995,3040
25.6704,3020
25.7413,3095
25.8122,2938
25.8831,2963
25.954,2973
26.0249,3020
26.0958,2997
26.1667,3067
26.2376,3150
26.3085,3005
26.3794,2984
26.4503,2898
26.5212,3053
26.5921,3087
26.6631,3012
26.734,2964
26.8049,3040
26.8758,2952
26.9467,3125
27.0176,3095
27.0885,2943
27.1594,2999
27.2303,2954
27.3012,3003
27.3721,3027
27.443,3034
27.5139,2953
27.5848,2981
27.6557,2964
27.72665,2958
27.7976,2982
27.8685,2931
27.9394,3050
28.0103,2947
28.0812,2942
28.1521,3036
28.223,3084
28.2939,2921
28.3648,2947
28.4357,2962
28.5066,2970
28.5775,2938
28.6484,2961
28.7193,3037
28.7902,2880
28.8612,2890
28.9321,2870
29.003,2971
29.0739,3035
29.1448,3219
29.2157,2959
29.2866,2946
29.3575,2952
29.4284,3002
29.4993,2893
29.5702,2914
29.6411,2990
29.712,2885
29.7829,3054
29.8538,2940
29.9248,3028
29.9957,2882
30.0666,3019
30.1375,3031
30.2084,2937
30.2793,3059
30.3502,2947
30.4211,2938
30.492,2989
30.5629,2930
30.6338,2979
30.7047,3050
30.7756,2992
30.8465,2898
30.9174,3027
30.9884,2800
31.0593,2984
31.1302,2996
31.2011,3053
31.27198,2863
31.3429,3047
31.4138,2950
31.4847,3047
31.5556,2940
31.6265,3040
31.6974,3006
31.7683,2871
31.8392,3098
31.9101,3004
31.981,2932
32.052,3016
32.1229,2900
32.1938,2954
32.2647,2977
32.3356,3025
32.4065,3070
32.4774,2998
32.5483,3082
32.6192,3087
32.6901,3078
32.761,2990
32.8319,2952
32.9028,3010
32.9737,2938
33.0446,3003
33.1156,3046
33.1865,3093
33.2574,3147
33.3283,3046
33.3992,2969
33.4701,3002
33.541,3178
33.6119,3161
33.6828,3082
33.7537,3027
33.8246,3067
33.8955,3087
33.9664,3121
34.0373,3124
34.1082,3143
34.1792,3127
34.2501,3110
34.321,3093
34.3919,3149
34.4628,3148
34.5337,3171
34.6046,3289
34.6755,3250
34.7464,3196
34.81731,3211
34.8882,3221
34.9591,3298
35.03,3262
35.1009,3333
35.1718,3426
35.2427,3299
35.3137,3310
35.3846,3296
35.4555,3251
35.5264,3482
35.5973,3345
35.6682,3386
35.7391,3517
35.81,3483
35.8809,3595
35.9518,3463
36.0227,3659
36.0936,3566
36.1645,3581
36.2354,3559
36.3063,3742
36.3773,3685
36.4482,3783
36.5191,3813
36.59,3817
36.6609,3916
36.7318,3900
36.8027,4091
36.8736,4032
36.9445,4289
37.0154,4368
37.0863,4417
37.1572,4690
37.2281,4678
37.299,4973
37.3699,5428
37.4409,5487
37.5118,5838
37.5827,6201
37.6536,6632
37.7245,7086
37.7954,7414
37.8663,7923
37.9372,8203
38.0081,8684
38.079,9181
38.1499,9409
38.2208,9258
38.2917,9253
38.36264,9315
38.4335,9118
38.5045,8925
38.5754,8722
38.6463,8758
38.7172,8737
38.7881,8457
38.859,8484
38.9299,8469
39.0008,8605
39.0717,8785
39.1426,8825
39.2135,8924
39.2844,9493
39.3553,9695
39.4262,10154
39.4971,10824
39.5681,11657
39.639,12661
39.7099,13527
39.7808,14845
39.8517,15991
39.9226,17059
39.9935,18112
40.0644,18419
40.1353,18580
40.2062,17859
40.2771,16977
40.348,16446
40.4189,15472
40.4898,14972
40.5607,14453
40.6317,13933
40.7026,13925
40.7735,13756
40.8444,13596
40.9153,13735
40.9862,13984
41.0571,13872
41.128,14162
41.1989,14132
41.2698,14298
41.3407,14398
41.4116,14275
41.4825,14389
41.5534,14038
41.6243,13850
41.6953,13722
41.7662,13490
41.8371,12970
41.90797,12649
41.9789,12456
42.0498,12171
42.1207,11776
42.1916,11740
42.2625,11713
42.3334,11548
42.4043,11735
42.4752,11676
42.5461,11979
42.617,12166
42.6879,12483
42.7588,12944
42.8298,13176
42.9007,13695
42.9716,14532
43.0425,14898
43.1134,15937
43.1843,16531
43.2552,17386
43.3261,17907
43.397,18996
43.4679,19220
43.5388,19592
43.6097,19630
43.6806,19763
43.7515,19579
43.8224,18878
43.8934,18078
43.9643,17302
44.0352,16599
44.1061,15426
44.177,14805
44.2479,13839
44.3188,12943
44.3897,12181
44.4606,11830
44.5315,11103
44.6024,10742
44.6733,10033
44.7442,9661
44.8151,9366
44.886,9140
44.957,8802
45.0279,8722
45.0988,8300
45.1697,8267
45.2406,7960
45.3115,8000
45.3824,7981
45.4533,7667
45.5242,7635
45.5951,7591
45.666,7506
45.7369,7885
45.8078,7882
45.8787,7732
45.9496,7959
46.0206,8167
46.0915,8345
46.1624,8368
46.2333,8795
46.3042,9122
46.3751,9074
46.446,9531
46.5169,9776
46.5878,9695
46.6587,9585
46.7296,9394
46.8005,8876
46.8714,8509
46.9423,8093
47.0132,7503
47.0842,7127
47.1551,6764
47.226,6689
47.2969,6362
47.3678,6083
47.4387,5763
47.5096,5675
47.5805,5491
47.6514,5414
47.7223,5213
47.7932,5037
47.8641,4964
47.935,4702
48.0059,4833
48.0768,4701
48.1478,4568
48.2187,4410
48.2896,4318
48.3605,4286
48.4314,4143
48.5023,4345
48.5732,4112
48.6441,4056
48.715,3980
48.7859,3896
48.8568,3998
48.9277,3802
48.99863,3905
49.0695,3832
49.1404,3812
49.2113,3715
49.2823,3606
49.3532,3667
49.4241,3628
49.495,3677
49.5659,3577
49.6368,3439
49.7077,3531
49.7786,3416
49.8495,3394
49.9204,3367
49.9913,3380
50.0622,3287
50.1331,3341
50.204,3308
50.2749,3302
50.3459,3386
50.4168,3337
50.4877,3241
50.5586,3259
50.6295,3262
50.7004,3272
50.7713,3173
50.8422,3239
50.9131,3149
50.984,3168
51.0549,3207
51.1258,3297
51.1967,3160
51.2676,3102
51.3385,3166
51.4095,3251
51.4804,3084
51.5513,3218
51.6222,3119
51.6931,2982
51.764,3003
51.8349,3204
51.9058,3066
51.9767,3035
52.0476,3097
52.1185,3130
52.1894,3069
52.2603,3132
52.3312,3032
52.4021,3050
52.4731,3091
52.54396,3009
52.6149,2936
52.6858,3008
52.7567,3063
52.8276,3039
52.8985,3045
52.9694,2925
53.0403,3098
53.1112,2942
53.1821,3093
53.253,3026
53.3239,2975
53.3948,2992
53.4657,3022
53.5367,2884
53.6076,3126
53.6785,3009
53.7494,3044
53.8203,2991
53.8912,2950
53.9621,3085
54.033,2991
54.1039,2969
54.1748,3081
54.2457,2975
54.3166,3044
54.3875,3020
54.4584,3052
54.5293,3070
54.6003,3074
54.6712,2990
54.7421,3128
54.813,3107
54.8839,3080
54.9548,3102
55.0257,3115
55.0966,3170
55.1675,3020
55.2384,3124
55.3093,3109
55.3802,3045
55.4511,3172
55.522,3216
55.5929,3249
55.6639,3155
55.7348,3337
55.8057,3302
55.8766,3295
55.9475,3379
56.0184,3335
56.08929,3368
56.1602,3397
56.2311,3379
56.302,3501
56.3729,3474
56.4438,3761
56.5147,3561
56.5856,3682
56.6565,3694
56.7274,3766
56.7984,3765
56.8693,3895
56.9402,3858
57.0111,3893
57.082,3959
57.1529,4057
57.2238,4104
57.2947,4061
57.3656,4144
57.4365,4322
57.5074,4234
57.5783,4245
57.6492,4280
57.7201,4347
57.791,4315
57.862,4333
57.9329,4295
58.0038,4257
58.0747,4416
58.1456,4122
58.2165,4234
58.2874,4089
58.3583,4029
58.4292,3928
58.5001,4091
58.571,3852
58.6419,3899
58.7128,3790
58.7837,3878
58.8546,3697
58.9256,3639
58.9965,3642
59.0674,3566
59.1383,3573
59.2092,3539
59.2801,3576
59.351,3493
59.4219,3510
59.4928,3434
59.5637,3476
59.63462,3437
59.7055,3414
59.7764,3363
59.8473,3408
59.9182,3484
59.9892,3229
60.0601,3394
60.131,3464
60.2019,3363
60.2728,3234
60.3437,3356
60.4146,3350
60.4855,3364
60.5564,3265
60.6273,3310
60.6982,3340
60.7691,3217
60.84,3357
60.9109,3400
60.9818,3301
61.0528,3201
61.1237,3332
61.1946,3278
61.2655,3230
61.3364,3374
61.4073,3308
61.4782,3260
61.5491,3252
61.62,3337
61.6909,3296
61.7618,3331
61.8327,3349
61.9036,3214
61.9745,3274
62.0454,3363
62.1164,3333
62.1873,3399
62.2582,3320
62.3291,3402
62.4,3315
62.4709,3229
62.5418,3226
62.6127,3291
62.6836,3324
62.7545,3356
62.8254,3399
62.8963,3389
62.9672,3404
63.0381,3371
63.109,3309
63.17995,3178
63.2509,3314
63.3218,3236
63.3927,3294
63.4636,3372
63.5345,3352
63.6054,3312
63.6763,3353
63.7472,3290
63.8181,3398
63.889,3380
63.9599,3282
64.0308,3241
64.1017,3285
64.1726,3231
64.2435,3308
64.3145,3343
64.3854,3427
64.4563,3341
64.5272,3332
64.5981,3292
64.669,3373
64.7399,3493
64.8108,3344
64.8817,3492
64.9526,3401
65.0235,3295
65.0944,3457
65.1653,3357
65.2362,3461
65.3071,3449
65.3781,3532
65.449,3553
65.5199,3507
65.5908,3514
65.6617,3618
65.7326,3618
65.8035,3664
65.8744,3639
65.9453,3673
66.0162,3619
66.0871,3679
66.158,3712
66.2289,3737
66.2998,3982
66.3707,3960
66.4417,3968
66.5126,3993
66.5835,4069
66.6544,4113
66.72528,4264
66.7962,4340
66.8671,4319
66.938,4502
67.0089,4488
67.0798,4704
67.1507,4758
67.2216,5058
67.2925,5042
67.3634,5449
67.4343,5514
67.5053,5706
67.5762,6186
67.6471,6441
67.718,6543
67.7889,7054
67.8598,7294
67.9307,7725
68.0016,8021
68.0725,8465
68.1434,8557
68.2143,8939
68.2852,8729
68.3561,8976
68.427,8977
68.4979,8886
68.5689,9132
68.6398,9074
68.7107,9115
68.7816,9234
68.8525,9329
68.9234,9315
68.9943,9324
69.0652,9165
69.1361,9115
69.207,8720
69.2779,8462
69.3488,8060
69.4197,7790
69.4906,7425
69.5615,7132
69.6325,6897
69.7034,6631
69.7743,6291
69.8452,5923
69.9161,5591
69.987,5499
70.0579,5322
70.1288,5296
70.1997,5034
70.27061,4794
70.3415,4866
70.4124,4713
70.4833,4464
70.5542,4282
70.6251,4310
70.696,4309
70.767,4149
70.8379,4112
70.9088,4183
70.9797,3956
71.0506,4044
71.1215,3786
71.1924,3921
71.2633,3926
71.3342,3877
71.4051,3896
71.476,3699
71.5469,3763
71.6178,3608
71.6887,3602
71.7596,3675
71.8306,3711
71.9015,3594
71.9724,3778
72.0433,3641
72.1142,3761
72.1851,3644
72.256,3572
72.3269,3574
72.3978,3677
72.4687,3676
72.5396,3449
72.6105,3541
72.6814,3517
72.7523,3510
72.8232,3512
72.8942,3461
72.9651,3533
73.036,3481
73.1069,3615
73.1778,3626
73.2487,3483
73.3196,3499
73.3905,3547
73.4614,3442
73.5323,3527
73.6032,3644
73.6741,3583
73.745,3539
73.81594,3494
73.8868,3504
73.9578,3698
74.0287,3561
74.0996,3734
74.1705,3684
74.2414,3693
74.3123,3560
74.3832,3656
74.4541,3676
74.525,3731
74.5959,3622
74.6668,3856
74.7377,3745
74.8086,3716
74.8795,3686
74.9504,3913
75.0214,3805
75.0923,3844
75.1632,3855
75.2341,3882
75.305,3921
75.3759,3935
75.4468,3813
75.5177,3907
75.5886,3979
75.6595,4106
75.7304,3995
75.8013,4177
75.8722,4137
75.9431,4152
76.014,4290
76.085,4384
76.1559,4339
76.2268,4413
76.2977,4410
76.3686,4626
76.4395,4599
76.5104,4623
76.5813,4806
76.6522,4892
76.7231,4841
76.794,4921
76.8649,4931
76.9358,5202
77.0067,5184
77.0776,5298
77.1486,5392
77.2195,5296
77.2904,5498
77.36127,5428
77.4322,5595
77.5031,5471
77.574,5509
77.6449,5509
77.7158,5691
77.7867,5504
77.8576,5562
77.9285,5390
77.9994,5413
78.0703,5404
78.1412,5271
78.2121,5213
78.2831,5154
78.354,5130
78.4249,4910
78.4958,4932
78.5667,4936
78.6376,4809
78.7085,4771
78.7794,4699
78.8503,4725
78.9212,4602
78.9921,4599
79.063,4565
79.1339,4580
79.2048,4584
79.2757,4532
79.3467,4458
79.4176,4480
79.4885,4575
79.5594,4591
79.6303,4588
79.7012,4411
79.7721,4530
79.843,4535
79.9139,4571
79.9848,4592
80.0557,4531
80.1266,4598
80.1975,4686
80.2684,4840
80.3393,4842
80.4103,4895
80.4812,4804
80.5521,4953
80.623,5022
80.6939,5122
80.7648,5233
80.8357,5318
80.9066,5466
80.9775,5540
81.0484,5740
81.1193,5956
81.1902,6125
81.2611,6234
81.332,6448
81.4029,6876
81.4739,7033
81.5448,7262
81.6157,7561
81.6866,7843
81.7575,8174
81.8284,8497
81.8993,8828
81.9702,9006
82.0411,9141
82.112,9264
82.1829,9319
82.2538,9430
82.3247,9362
82.3956,9055
82.4665,9252
82.5375,8758
82.6084,8688
82.6793,8545
82.7502,8615
82.8211,8500
82.892,8642
82.9629,8511
83.0338,8441
83.1047,8643
83.1756,8765
83.2465,8641
83.3174,8961
83.3883,9169
83.4592,9254
83.5301,9542
83.6011,9544
83.672,9697
83.7429,9971
83.8138,10272
83.8847,10056
83.9556,9954
84.0265,9998
84.0974,9850
84.1683,9851
84.2392,9675
84.3101,9625
84.381,9465
84.45193,9257
84.5228,9131
84.5937,8782
84.6646,8752
84.7356,8457
84.8065,8521
84.8774,8431
84.9483,8356
85.0192,8252
85.0901,8252
85.161,8163
85.2319,8144
85.3028,7950
85.3737,7930
85.4446,7708
85.5155,7720
85.5864,7587
85.6573,7390
85.7282,7162
85.7992,7030
85.8701,6996
85.941,6812
86.0119,6750
86.0828,6651
86.1537,6600
86.2246,6430
86.2955,6324
86.3664,6189
86.4373,6155
86.5082,6320
86.5791,6104
86.65,5966
86.7209,5964
86.7918,5725
86.8628,5713
86.9337,5510
87.0046,5471
87.0755,5178
87.1464,5033
87.2173,4980
87.2882,4839
87.3591,4714
87.43,4562
87.5009,4582
87.5718,4440
87.6427,4384
87.7136,4268
87.7845,4380
87.8554,4214
87.9264,4136
87.99726,4204
88.0682,4094
88.1391,3998
88.21,3991
88.2809,3998
88.3518,3980
88.4227,3914
88.4936,3966
88.5645,3811
88.6354,3869
88.7063,3738
88.7772,3863
88.8481,3737
88.919,3680
88.99,3682
89.0609,3677
89.1318,3643
89.2027,3718
89.2736,3694
89.3445,3717
89.4154,3592
89.4863,3727
89.5572,3569
89.6281,3750
89.699,3682
89.7699,3724
89.8408,3725
89.9117,3829
89.9826,3737
90.0181,3612