File: data/XRD_raw_spectra/XRD_Ru.xy
'Id: "" Comment: "" Operator: "Bruker Service" Anode: "Cu" Scantype: "Coupled TwoTheta/Theta" TimePerStep: "28.8"
5 3.54167
5.05941 3.54167
5.11882 2.88194
5.17824 2.29167
5.23765 2.39583
5.29706 3.05556
5.35647 2.95139
5.41588 2.8125
5.47529 2.32639
5.53471 2.32639
5.59412 2.04861
5.65353 2.5
5.71294 2.46528
5.77235 2.53472
5.83176 2.04861
5.89118 1.80556
5.95059 2.01389
6.01 2.01389
6.06941 1.80556
6.12882 1.80556
6.18823 1.94444
6.24765 1.45833
6.30706 1.80556
6.36647 1.70139
6.42588 1.77083
6.48529 1.875
6.5447 2.29167
6.60412 2.1875
6.66353 1.77083
6.72294 1.63194
6.78235 1.66667
6.84176 1.70139
6.90118 1.66667
6.96059 1.52778
7.02 1.59722
7.07941 2.15278
7.13882 1.80556
7.19823 1.66667
7.25765 1.70139
7.31706 1.42361
7.37647 1.42361
7.43588 1.59722
7.49529 1.49306
7.5547 1.45833
7.61412 1.70139
7.67353 1.28472
7.73294 1.11111
7.79235 1.84028
7.85176 1.42361
7.91117 1.14583
7.97059 1.31944
8.03 1.14583
8.08941 1.31944
8.14882 1.52778
8.20823 1.42361
8.26764 1.18056
8.32706 1.45833
8.38647 0.902778
8.44588 1.5625
8.50529 1.38889
8.5647 1.28472
8.62412 0.833333
8.68353 1.11111
8.74294 1.11111
8.80235 1.07639
8.86176 1.04167
8.92117 1.21528
8.98059 1.04167
9.04 1.59722
9.09941 1.45833
9.15882 0.9375
9.21823 1.11111
9.27764 0.625
9.33706 1.00694
9.39647 0.729167
9.45588 0.9375
9.51529 1.21528
9.5747 1.21528
9.63411 1.45833
9.69353 1.38889
9.75294 1.07639
9.81235 0.868056
9.87176 0.902778
9.93117 0.694444
9.99058 1.04167
10.05 1.18056
10.1094 1.21528
10.1688 0.902778
10.2282 1.04167
10.2876 0.972222
10.3471 1.18056
10.4065 0.9375
10.4659 1.07639
10.5253 0.9375
10.5847 1.14583
10.6441 1.28472
10.7035 1.11111
10.7629 0.972222
10.8223 1.66667
10.8818 1.25
10.9412 1.25
11.0006 0.972222
11.06 1.35417
11.1194 1.18056
11.1788 1.49306
11.2382 1.07639
11.2976 0.798611
11.3571 1.18056
11.4165 1.31944
11.4759 0.972222
11.5353 1.14583
11.5947 0.798611
11.6541 1.00694
11.7135 0.902778
11.7729 1.14583
11.8323 1.00694
11.8918 0.9375
11.9512 1.00694
12.0106 1.14583
12.07 1.25
12.1294 0.625
12.1888 1.00694
12.2482 0.902778
12.3076 1.35417
12.3671 1.28472
12.4265 1.21528
12.4859 1.25
12.5453 0.833333
12.6047 1.07639
12.6641 1.04167
12.7235 1.11111
12.7829 1.28472
12.8423 1.07639
12.9018 1.21528
12.9612 1.35417
13.0206 0.972222
13.08 1.21528
13.1394 1.14583
13.1988 0.902778
13.2582 1.07639
13.3176 1.42361
13.3771 1.04167
13.4365 0.798611
13.4959 1.28472
13.5553 0.972222
13.6147 1.28472
13.6741 1.11111
13.7335 0.902778
13.7929 1.04167
13.8523 1.42361
13.9118 1.11111
13.9712 1.07639
14.0306 0.972222
14.09 1.49306
14.1494 1.00694
14.2088 1.04167
14.2682 1.11111
14.3276 1.00694
14.3871 1.18056
14.4465 1.11111
14.5059 1.11111
14.5653 1.11111
14.6247 1.11111
14.6841 1.28472
14.7435 1.07639
14.8029 1.14583
14.8623 1.25
14.9218 1.04167
14.9812 1.18056
15.0406 1.07639
15.1 1.42361
15.1594 1.45833
15.2188 1.25
15.2782 1.07639
15.3376 1.11111
15.3971 1.04167
15.4565 1.21528
15.5159 1.25
15.5753 0.798611
15.6347 1.18056
15.6941 1.31944
15.7535 1.07639
15.8129 1.00694
15.8723 1.25
15.9318 1.07639
15.9912 1.07639
16.0506 0.972222
16.11 1.18056
16.1694 1.31944
16.2288 1.63194
16.2882 1.80556
16.3476 1.07639
16.4071 1.5625
16.4665 1.21528
16.5259 1.11111
16.5853 1.07639
16.6447 1.52778
16.7041 1.66667
16.7635 1.38889
16.8229 1.18056
16.8823 1.73611
16.9418 1.70139
17.0012 1.31944
17.0606 1.45833
17.12 1.45833
17.1794 1.45833
17.2388 1.77083
17.2982 1.21528
17.3576 1.70139
17.4171 1.00694
17.4765 1.42361
17.5359 1.18056
17.5953 1.49306
17.6547 1.31944
17.7141 1.52778
17.7735 1.90972
17.8329 1.42361
17.8923 1.45833
17.9518 1.90972
18.0112 1.35417
18.0706 1.14583
18.13 2.04861
18.1894 1.63194
18.2488 1.18056
18.3082 1.31944
18.3676 1.25
18.427 1.94444
18.4865 1.11111
18.5459 1.66667
18.6053 1.49306
18.6647 1.45833
18.7241 1.63194
18.7835 1.28472
18.8429 1.90972
18.9023 1.66667
18.9618 1.04167
19.0212 1.45833
19.0806 1.77083
19.14 1.45833
19.1994 1.59722
19.2588 1.73611
19.3182 1.45833
19.3776 1.70139
19.437 1.28472
19.4965 1.42361
19.5559 1.35417
19.6153 1.25
19.6747 1.80556
19.7341 1.38889
19.7935 1.21528
19.8529 1.5625
19.9123 1.21528
19.9718 1.70139
20.0312 1.66667
20.0906 1.70139
20.15 1.28472
20.2094 1.35417
20.2688 1.80556
20.3282 1.42361
20.3876 1.21528
20.447 1.45833
20.5065 1.21528
20.5659 1.97917
20.6253 1.38889
20.6847 1.59722
20.7441 1.21528
20.8035 1.25
20.8629 1.35417
20.9223 1.59722
20.9818 1.35417
21.0412 1.66667
21.1006 1.5625
21.16 1.42361
21.2194 1.31944
21.2788 0.972222
21.3382 1.77083
21.3976 1.45833
21.457 1.14583
21.5165 1.70139
21.5759 1.18056
21.6353 1.25
21.6947 1.66667
21.7541 1.35417
21.8135 1.38889
21.8729 1.31944
21.9323 1.49306
21.9918 1.90972
22.0512 1.66667
22.1106 1.70139
22.17 1.63194
22.2294 1.66667
22.2888 1.59722
22.3482 1.28472
22.4076 1.45833
22.467 1.63194
22.5265 1.21528
22.5859 1.38889
22.6453 1.80556
22.7047 1.80556
22.7641 1.63194
22.8235 1.66667
22.8829 1.52778
22.9423 1.49306
23.0018 1.5625
23.0612 1.49306
23.1206 1.28472
23.18 1.80556
23.2394 2.32639
23.2988 1.63194
23.3582 1.5625
23.4176 1.63194
23.477 1.84028
23.5365 1.66667
23.5959 1.59722
23.6553 1.42361
23.7147 1.70139
23.7741 1.63194
23.8335 2.1875
23.8929 1.63194
23.9523 1.52778
24.0118 1.5625
24.0712 2.08333
24.1306 1.875
24.19 1.11111
24.2494 1.66667
24.3088 1.875
24.3682 1.28472
24.4276 1.52778
24.487 2.15278
24.5465 1.63194
24.6059 1.73611
24.6653 1.94444
24.7247 1.63194
24.7841 1.90972
24.8435 1.66667
24.9029 2.39583
24.9623 1.90972
25.0218 1.875
25.0812 1.73611
25.1406 1.63194
25.2 1.45833
25.2594 2.11806
25.3188 2.08333
25.3782 1.94444
25.4376 1.70139
25.497 2.11806
25.5565 1.42361
25.6159 1.70139
25.6753 1.63194
25.7347 1.35417
25.7941 1.73611
25.8535 2.04861
25.9129 1.73611
25.9723 1.5625
26.0318 1.84028
26.0912 1.875
26.1506 1.66667
26.21 1.90972
26.2694 2.01389
26.3288 2.08333
26.3882 2.04861
26.4476 1.49306
26.507 1.5625
26.5665 1.94444
26.6259 1.80556
26.6853 2.39583
26.7447 1.97917
26.8041 1.84028
26.8635 1.97917
26.9229 2.01389
26.9823 1.70139
27.0417 1.70139
27.1012 1.73611
27.1606 1.875
27.22 1.73611
27.2794 1.875
27.3388 1.63194
27.3982 1.63194
27.4576 1.70139
27.517 1.70139
27.5765 1.63194
27.6359 2.08333
27.6953 1.84028
27.7547 1.84028
27.8141 1.77083
27.8735 1.80556
27.9329 1.52778
27.9923 1.52778
28.0517 2.01389
28.1112 1.59722
28.1706 1.5625
28.23 1.84028
28.2894 1.5625
28.3488 1.31944
28.4082 1.52778
28.4676 1.94444
28.527 1.73611
28.5865 1.97917
28.6459 2.32639
28.7053 1.73611
28.7647 1.77083
28.8241 2.08333
28.8835 2.08333
28.9429 1.77083
29.0023 2.01389
29.0617 2.01389
29.1212 1.70139
29.1806 1.59722
29.24 2.04861
29.2994 1.38889
29.3588 2.77778
29.4182 2.22222
29.4776 2.29167
29.537 2.15278
29.5965 1.97917
29.6559 1.94444
29.7153 1.70139
29.7747 1.80556
29.8341 2.36111
29.8935 1.59722
29.9529 1.5625
30.0123 1.28472
30.0717 1.94444
30.1312 2.1875
30.1906 2.08333
30.25 1.73611
30.3094 2.04861
30.3688 1.66667
30.4282 2.29167
30.4876 1.97917
30.547 2.01389
30.6065 2.36111
30.6659 1.84028
30.7253 1.38889
30.7847 2.08333
30.8441 2.32639
30.9035 1.77083
30.9629 2.22222
31.0223 1.97917
31.0817 2.15278
31.1412 2.01389
31.2006 2.08333
31.26 2.11806
31.3194 2.25694
31.3788 1.94444
31.4382 2.04861
31.4976 2.01389
31.557 2.60417
31.6165 2.67361
31.6759 2.11806
31.7353 1.97917
31.7947 2.25694
31.8541 2.67361
31.9135 2.15278
31.9729 1.80556
32.0323 1.97917
32.0917 1.94444
32.1512 2.01389
32.2106 2.11806
32.27 2.29167
32.3294 2.29167
32.3888 2.22222
32.4482 1.90972
32.5076 2.01389
32.567 2.15278
32.6265 2.63889
32.6859 2.39583
32.7453 2.67361
32.8047 2.04861
32.8641 1.875
32.9235 2.91667
32.9829 2.36111
33.0423 1.66667
33.1017 1.84028
33.1612 2.1875
33.2206 2.29167
33.28 2.88194
33.3394 2.67361
33.3988 1.94444
33.4582 2.5
33.5176 2.70833
33.577 2.32639
33.6365 2.39583
33.6959 2.53472
33.7553 2.56944
33.8147 2.56944
33.8741 2.1875
33.9335 2.63889
33.9929 2.1875
34.0523 3.09028
34.1117 1.875
34.1712 2.67361
34.2306 3.05556
34.29 1.80556
34.3494 2.01389
34.4088 2.84722
34.4682 2.15278
34.5276 3.15972
34.587 2.53472
34.6464 2.43056
34.7059 2.88194
34.7653 2.95139
34.8247 2.8125
34.8841 2.39583
34.9435 2.74306
35.0029 2.67361
35.0623 3.05556
35.1217 3.29861
35.1812 2.8125
35.2406 2.91667
35.3 3.15972
35.3594 3.33333
35.4188 3.22917
35.4782 3.05556
35.5376 2.5
35.597 3.68056
35.6564 3.15972
35.7159 2.63889
35.7753 2.88194
35.8347 3.54167
35.8941 2.84722
35.9535 3.40278
36.0129 3.09028
36.0723 2.8125
36.1317 3.54167
36.1912 3.02083
36.2506 3.125
36.31 2.91667
36.3694 3.85417
36.4288 3.81944
36.4882 4.0625
36.5476 4.30556
36.607 4.16667
36.6664 3.99306
36.7259 4.58333
36.7853 3.95833
36.8447 5.03472
36.9041 4.0625
36.9635 5.65972
37.0229 5.10417
37.0823 5.83333
37.1417 5.10417
37.2012 5.24306
37.2606 5.13889
37.32 6.77083
37.3794 6.25
37.4388 6.31944
37.4982 7.70833
37.5576 7.91667
37.617 8.26389
37.6764 8.78472
37.7359 8.57639
37.7953 9.54861
37.8547 9.75694
37.9141 10.8333
37.9735 10.9028
38.0329 10.8333
38.0923 11.6319
38.1517 12.1528
38.2112 12.9514
38.2706 12.6736
38.33 14.4097
38.3894 14.0278
38.4488 12.7431
38.5082 13.7847
38.5676 13.6111
38.627 12.2569
38.6864 12.3264
38.7459 11.6667
38.8053 11.3889
38.8647 11.4236
38.9241 11.9097
38.9835 10.3125
39.0429 9.13194
39.1023 10.6944
39.1617 7.95139
39.2212 8.09028
39.2806 8.99306
39.34 7.70833
39.3994 7.63889
39.4588 8.09028
39.5182 7.88194
39.5776 7.8125
39.637 7.84722
39.6964 7.43056
39.7559 6.77083
39.8153 7.1875
39.8747 6.70139
39.9341 7.43056
39.9935 8.26389
40.0529 6.94444
40.1123 7.56944
40.1717 6.84028
40.2312 8.4375
40.2906 7.60417
40.35 6.77083
40.4094 7.5
40.4688 8.02083
40.5282 8.47222
40.5876 7.8125
40.647 7.43056
40.7064 9.02778
40.7659 7.77778
40.8253 9.09722
40.8847 10.2778
40.9441 10.5903
41.0035 9.89583
41.0629 10.6944
41.1223 11.4236
41.1817 11.3194
41.2412 11.8056
41.3006 14.1667
41.36 12.6042
41.4194 14.0972
41.4788 14.1667
41.5382 14.2708
41.5976 14.8611
41.657 15.2431
41.7164 17.3264
41.7759 18.0556
41.8353 17.8472
41.8947 17.6736
41.9541 19.4792
42.0135 20.1042
42.0729 20.6597
42.1323 21.25
42.1917 20.7639
42.2512 20.3819
42.3106 22.6736
42.37 22.3958
42.4294 20.7639
42.4888 21.1458
42.5482 20.6944
42.6076 20.7639
42.667 22.2569
42.7264 21.2847
42.7859 21.5278
42.8453 21.1111
42.9047 22.3264
42.9641 24.2708
43.0235 25.0347
43.0829 24.3403
43.1423 25.4167
43.2017 27.0833
43.2611 28.8194
43.3206 28.5417
43.38 31.5625
43.4394 31.25
43.4988 33.7847
43.5582 34.7222
43.6176 36.1458
43.677 37.6042
43.7364 40.3125
43.7959 40.7986
43.8553 42.3958
43.9147 45.4167
43.9741 44.0625
44.0335 43.4028
44.0929 42.4306
44.1523 39.7917
44.2117 40.7639
44.2711 35.5208
44.3306 33.1597
44.39 31.2847
44.4494 30.9375
44.5088 28.8542
44.5682 27.1181
44.6276 25.8681
44.687 23.8194
44.7464 22.4306
44.8059 19.5486
44.8653 19.2708
44.9247 19.3403
44.9841 16.3194
45.0435 17.2917
45.1029 16.4583
45.1623 13.1597
45.2217 12.5347
45.2811 13.7153
45.3406 12.8819
45.4 11.0069
45.4594 10.7639
45.5188 9.72222
45.5782 9.96528
45.6376 9.20139
45.697 9.09722
45.7564 7.91667
45.8159 8.29861
45.8753 8.22917
45.9347 6.59722
45.9941 7.43056
46.0535 7.15278
46.1129 6.14583
46.1723 6.59722
46.2317 5.76389
46.2911 5.86806
46.3506 5.97222
46.41 5.625
46.4694 4.51389
46.5288 5.90278
46.5882 5.27778
46.6476 5.10417
46.707 5.06944
46.7664 4.89583
46.8259 3.78472
46.8853 3.68056
46.9447 4.75694
47.0041 4.02778
47.0635 4.30556
47.1229 3.95833
47.1823 4.27083
47.2417 3.85417
47.3011 4.40972
47.3606 4.13194
47.42 4.09722
47.4794 3.64583
47.5388 3.4375
47.5982 3.57639
47.6576 3.92361
47.717 3.125
47.7764 3.54167
47.8359 3.75
47.8953 3.85417
47.9547 3.22917
48.0141 3.64583
48.0735 3.40278
48.1329 3.36806
48.1923 2.53472
48.2517 2.91667
48.3111 2.84722
48.3706 2.39583
48.43 3.78472
48.4894 3.54167
48.5488 2.88194
48.6082 3.4375
48.6676 3.61111
48.727 3.40278
48.7864 3.02083
48.8459 2.95139
48.9053 2.98611
48.9647 2.39583
49.0241 2.88194
49.0835 2.77778
49.1429 2.84722
49.2023 3.125
49.2617 2.74306
49.3211 2.70833
49.3806 3.19444
49.44 2.8125
49.4994 2.74306
49.5588 3.09028
49.6182 3.02083
49.6776 2.32639
49.737 2.63889
49.7964 2.74306
49.8559 3.22917
49.9153 3.19444
49.9747 2.39583
50.0341 3.05556
50.0935 2.77778
50.1529 2.67361
50.2123 2.46528
50.2717 2.70833
50.3311 3.19444
50.3906 2.53472
50.45 2.60417
50.5094 2.46528
50.5688 2.36111
50.6282 2.5
50.6876 2.36111
50.747 3.125
50.8064 3.40278
50.8659 3.02083
50.9253 2.53472
50.9847 3.09028
51.0441 2.53472
51.1035 2.29167
51.1629 2.70833
51.2223 2.70833
51.2817 2.67361
51.3411 2.74306
51.4006 2.74306
51.46 2.36111
51.5194 2.77778
51.5788 2.84722
51.6382 2.53472
51.6976 2.5
51.757 2.67361
51.8164 2.32639
51.8758 2.74306
51.9353 2.15278
51.9947 2.25694
52.0541 2.53472
52.1135 3.29861
52.1729 3.22917
52.2323 2.5
52.2917 2.32639
52.3511 3.02083
52.4106 2.56944
52.47 2.60417
52.5294 2.46528
52.5888 2.77778
52.6482 2.25694
52.7076 2.43056
52.767 2.25694
52.8264 2.77778
52.8858 2.60417
52.9453 2.56944
53.0047 3.22917
53.0641 2.77778
53.1235 2.88194
53.1829 2.98611
53.2423 2.5
53.3017 2.84722
53.3611 3.15972
53.4206 3.09028
53.48 2.70833
53.5394 2.67361
53.5988 2.63889
53.6582 2.67361
53.7176 3.19444
53.777 3.4375
53.8364 3.26389
53.8958 3.22917
53.9553 3.02083
54.0147 2.60417
54.0741 2.60417
54.1335 2.53472
54.1929 3.125
54.2523 3.47222
54.3117 3.33333
54.3711 3.05556
54.4306 2.77778
54.49 3.33333
54.5494 3.54167
54.6088 3.15972
54.6682 3.29861
54.7276 3.50694
54.787 3.05556
54.8464 2.8125
54.9058 3.02083
54.9653 3.36806
55.0247 3.61111
55.0841 3.36806
55.1435 3.40278
55.2029 2.74306
55.2623 3.15972
55.3217 2.63889
55.3811 3.19444
55.4406 2.63889
55.5 3.68056
55.5594 2.98611
55.6188 3.40278
55.6782 3.33333
55.7376 4.02778
55.797 3.64583
55.8564 3.02083
55.9158 3.22917
55.9753 3.64583
56.0347 3.09028
56.0941 3.50694
56.1535 4.34028
56.2129 3.54167
56.2723 3.15972
56.3317 3.78472
56.3911 4.72222
56.4506 4.13194
56.51 4.375
56.5694 4.79167
56.6288 4.02778
56.6882 3.71528
56.7476 3.88889
56.807 4.34028
56.8664 3.68056
56.9258 4.13194
56.9853 4.79167
57.0447 3.50694
57.1041 5.20833
57.1635 4.375
57.2229 5.24306
57.2823 4.93056
57.3417 5.55556
57.4011 5.17361
57.4606 5.13889
57.52 5.76389
57.5794 5.625
57.6388 5.48611
57.6982 5.3125
57.7576 6.35417
57.817 6.66667
57.8764 6.28472
57.9358 6.31944
57.9953 6.18056
58.0547 7.84722
58.1141 6.38889
58.1735 6.80556
58.2329 7.46528
58.2923 8.19444
58.3517 7.32639
58.4111 7.36111
58.4706 6.875
58.53 6.25
58.5894 6.94444
58.6488 5.69444
58.7082 6.21528
58.7676 7.04861
58.827 6.35417
58.8864 6.07639
58.9458 6.18056
59.0053 6.18056
59.0647 5.55556
59.1241 5.06944
59.1835 4.09722
59.2429 5.65972
59.3023 5.9375
59.3617 5.3125
59.4211 4.96528
59.4806 4.6875
59.54 4.75694
59.5994 5.10417
59.6588 4.75694
59.7182 5.24306
59.7776 5.59028
59.837 5.06944
59.8964 5.41667
59.9558 4.47917
60.0153 4.93056
60.0747 4.89583
60.1341 5.10417
60.1935 4.75694
60.2529 5.03472
60.3123 4.82639
60.3717 4.40972
60.4311 4.6875
60.4905 4.27083
60.55 5.20833
60.6094 4.54861
60.6688 4.20139
60.7282 4.61806
60.7876 4.27083
60.847 4.44444
60.9064 3.54167
60.9658 4.27083
61.0253 4.02778
61.0847 4.6875
61.1441 4.6875
61.2035 4.23611
61.2629 5.03472
61.3223 3.92361
61.3817 4.51389
61.4411 3.85417
61.5005 5.17361
61.56 4.34028
61.6194 4.82639
61.6788 4.02778
61.7382 4.51389
61.7976 5.27778
61.857 4.61806
61.9164 4.58333
61.9758 4.44444
62.0353 4.58333
62.0947 4.54861
62.1541 4.0625
62.2135 5.72917
62.2729 5.41667
62.3323 5.48611
62.3917 4.61806
62.4511 4.40972
62.5105 4.44444
62.57 4.40972
62.6294 4.23611
62.6888 5.06944
62.7482 3.71528
62.8076 4.51389
62.867 4.54861
62.9264 4.30556
62.9858 5.06944
63.0453 4.23611
63.1047 4.79167
63.1641 4.13194
63.2235 5.06944
63.2829 4.6875
63.3423 4.40972
63.4017 4.75694
63.4611 3.47222
63.5205 4.30556
63.58 4.27083
63.6394 4.27083
63.6988 4.54861
63.7582 4.58333
63.8176 5.24306
63.877 4.30556
63.9364 3.85417
63.9958 4.54861
64.0553 4.16667
64.1147 4.375
64.1741 4.6875
64.2335 4.23611
64.2929 4.61806
64.3523 4.44444
64.4117 4.30556
64.4711 3.81944
64.5305 5.06944
64.59 4.47917
64.6494 4.20139
64.7088 4.51389
64.7682 3.95833
64.8276 3.78472
64.887 3.99306
64.9464 3.4375
65.0058 3.99306
65.0653 4.72222
65.1247 3.85417
65.1841 4.40972
65.2435 3.71528
65.3029 3.36806
65.3623 3.40278
65.4217 5
65.4811 4.44444
65.5405 4.0625
65.6 3.99306
65.6594 3.81944
65.7188 3.47222
65.7782 4.40972
65.8376 4.30556
65.897 4.13194
65.9564 4.47917
66.0158 4.09722
66.0753 4.61806
66.1347 4.13194
66.1941 3.81944
66.2535 3.57639
66.3129 4.09722
66.3723 4.47917
66.4317 4.61806
66.4911 3.61111
66.5505 4.27083
66.61 4.86111
66.6694 3.88889
66.7288 4.23611
66.7882 4.27083
66.8476 3.61111
66.907 4.40972
66.9664 3.36806
67.0258 4.61806
67.0853 4.27083
67.1447 4.40972
67.2041 4.82639
67.2635 4.86111
67.3229 4.16667
67.3823 4.20139
67.4417 4.02778
67.5011 4.47917
67.5605 5.20833
67.62 5.10417
67.6794 5.27778
67.7388 5
67.7982 4.96528
67.8576 5.48611
67.917 4.34028
67.9764 5.17361
68.0358 5.24306
68.0953 5.06944
68.1547 6.18056
68.2141 5.625
68.2735 5.72917
68.3329 5.59028
68.3923 6.90972
68.4517 7.04861
68.5111 6.875
68.5705 6.66667
68.63 6.77083
68.6894 7.63889
68.7488 8.33333
68.8082 7.32639
68.8676 8.05556
68.927 7.84722
68.9864 7.95139
69.0458 9.34028
69.1052 8.95833
69.1647 8.64583
69.2241 10.2778
69.2835 9.16667
69.3429 9.20139
69.4023 9.86111
69.4617 9.79167
69.5211 9.6875
69.5805 9.20139
69.64 9.30556
69.6994 9.23611
69.7588 8.99306
69.8182 7.46528
69.8776 7.43056
69.937 7.53472
69.9964 7.36111
70.0558 6.84028
70.1152 6.59722
70.1747 5.72917
70.2341 6.45833
70.2935 5.48611
70.3529 6.45833
70.4123 6.07639
70.4717 5.83333
70.5311 5.45139
70.5905 5.65972
70.65 5.03472
70.7094 5.34722
70.7688 4.44444
70.8282 5.10417
70.8876 4.20139
70.947 4.54861
71.0064 4.375
71.0658 4.47917
71.1252 4.51389
71.1847 4.54861
71.2441 4.13194
71.3035 3.92361
71.3629 4.40972
71.4223 4.40972
71.4817 3.85417
71.5411 3.78472
71.6005 4.13194
71.66 3.85417
71.7194 4.40972
71.7788 3.47222
71.8382 3.61111
71.8976 3.40278
71.957 3.88889
72.0164 3.33333
72.0758 3.78472
72.1352 2.74306
72.1947 3.68056
72.2541 4.51389
72.3135 3.85417
72.3729 3.54167
72.4323 3.05556
72.4917 3.15972
72.5511 4.16667
72.6105 4.20139
72.67 3.61111
72.7294 3.09028
72.7888 3.26389
72.8482 3.09028
72.9076 3.22917
72.967 3.99306
73.0264 4.02778
73.0858 3.50694
73.1452 3.85417
73.2047 3.68056
73.2641 3.71528
73.3235 3.54167
73.3829 3.33333
73.4423 4.72222
73.5017 3.78472
73.5611 3.19444
73.6205 3.92361
73.68 3.50694
73.7394 3.54167
73.7988 3.88889
73.8582 4.44444
73.9176 3.61111
73.977 3.57639
74.0364 3.71528
74.0958 4.16667
74.1552 3.61111
74.2147 3.78472
74.2741 4.02778
74.3335 4.02778
74.3929 4.09722
74.4523 4.16667
74.5117 4.27083
74.5711 3.85417
74.6305 3.88889
74.69 3.85417
74.7494 3.71528
74.8088 4.16667
74.8682 4.375
74.9276 4.13194
74.987 4.47917
75.0464 4.40972
75.1058 4.16667
75.1652 3.92361
75.2247 4.54861
75.2841 4.30556
75.3435 3.81944
75.4029 4.02778
75.4623 3.85417
75.5217 4.79167
75.5811 4.02778
75.6405 5.17361
75.7 5.17361
75.7594 4.23611
75.8188 4.44444
75.8782 4.20139
75.9376 3.92361
75.997 5.13889
76.0564 5.17361
76.1158 5.45139
76.1752 5.48611
76.2347 4.6875
76.2941 4.6875
76.3535 5.3125
76.4129 4.93056
76.4723 5.13889
76.5317 4.6875
76.5911 4.47917
76.6505 4.93056
76.7099 5.59028
76.7694 6.21528
76.8288 5.59028
76.8882 5.90278
76.9476 5.76389
77.007 6.07639
77.0664 6.875
77.1258 5.45139
77.1852 6.49306
77.2447 6.45833
77.3041 7.11806
77.3635 6.14583
77.4229 7.15278
77.4823 6.80556
77.5417 7.53472
77.6011 7.43056
77.6605 7.22222
77.7199 7.36111
77.7794 7.91667
77.8388 9.02778
77.8982 8.4375
77.9576 9.13194
78.017 9.27083
78.0764 8.22917
78.1358 9.75694
78.1952 8.99306
78.2547 9.13194
78.3141 9.27083
78.3735 10.2083
78.4329 9.0625
78.4923 8.33333
78.5517 9.13194
78.6111 8.78472
78.6705 8.33333
78.7299 8.125
78.7894 8.81944
78.8488 8.47222
78.9082 7.67361
78.9676 7.95139
79.027 8.40278
79.0864 8.15972
79.1458 7.1875
79.2052 7.46528
79.2647 6.63194
79.3241 6.07639
79.3835 7.22222
79.4429 6.14583
79.5023 5.97222
79.5617 5.69444
79.6211 7.08333
79.6805 6.38889
79.7399 6.94444
79.7994 6.94444
79.8588 6.45833
79.9182 6.28472
79.9776 5.625
80.0073 5.9375