File: data/XRD_raw_spectra/XRD_Ru-Pd.csv
6,3497
6.07617,3380
6.15234,3564
6.22851,3392
6.30468,3483
6.38085,3439
6.45701,3528
6.53318,3331
6.60935,3392
6.68552,3364
6.76169,3161
6.83786,3103
6.91403,3068
6.9902,3028
7.06637,2904
7.14254,2921
7.2187,2885
7.29487,2868
7.37104,2806
7.44721,2769
7.52338,2744
7.59955,2785
7.67572,2605
7.75189,2614
7.82806,2627
7.90423,2582
7.98039,2657
8.05656,2602
8.13273,2633
8.2089,2529
8.28507,2642
8.36124,2598
8.43741,2559
8.51358,2433
8.58975,2549
8.66592,2444
8.74208,2385
8.81825,2498
8.89442,2482
8.97059,2457
9.04676,2347
9.12293,2386
9.1991,2378
9.27527,2431
9.35144,2356
9.42761,2222
9.50377,2298
9.57994,2388
9.65611,2242
9.73228,2274
9.80845,2178
9.88462,2205
9.96079,2143
10.03696,2192
10.11313,2153
10.1893,2140
10.26546,2228
10.34163,2121
10.4178,2109
10.49397,2070
10.57014,2037
10.64631,2022
10.72248,2063
10.79865,1991
10.87482,1956
10.95099,2002
11.02715,1923
11.10332,1944
11.17949,1962
11.25566,1872
11.33183,1933
11.408,1920
11.48417,1812
11.56034,1869
11.63651,1865
11.71268,1831
11.78884,1760
11.86501,1747
11.94118,1722
12.01735,1742
12.09352,1720
12.16969,1657
12.24586,1624
12.32203,1695
12.3982,1647
12.47437,1646
12.55053,1575
12.6267,1627
12.70287,1629
12.77904,1561
12.85521,1539
12.93138,1538
13.00755,1557
13.08372,1477
13.15989,1432
13.23606,1463
13.31222,1468
13.38839,1426
13.46456,1412
13.54073,1402
13.6169,1382
13.69307,1467
13.76924,1424
13.84541,1381
13.92158,1350
13.99775,1383
14.07391,1380
14.15008,1419
14.22625,1358
14.30242,1313
14.37859,1378
14.45476,1389
14.53093,1366
14.6071,1367
14.68327,1353
14.75944,1373
14.8356,1395
14.91177,1333
14.98794,1337
15.06411,1299
15.14028,1273
15.21645,1251
15.29262,1317
15.36879,1395
15.44496,1354
15.52113,1287
15.59729,1276
15.67346,1321
15.74963,1330
15.8258,1337
15.90197,1356
15.97814,1347
16.05431,1273
16.13048,1314
16.20665,1313
16.28282,1201
16.35898,1356
16.43515,1290
16.51132,1341
16.58749,1292
16.66366,1281
16.73983,1234
16.816,1285
16.89217,1277
16.96834,1342
17.04451,1277
17.12067,1303
17.19684,1264
17.27301,1371
17.34918,1288
17.42535,1291
17.50152,1206
17.57769,1299
17.65386,1296
17.73003,1236
17.8062,1231
17.88236,1195
17.95853,1213
18.0347,1266
18.11087,1332
18.18704,1237
18.26321,1237
18.33938,1253
18.41555,1220
18.49172,1271
18.56789,1218
18.64405,1190
18.72022,1252
18.79639,1220
18.87256,1189
18.94873,1190
19.0249,1245
19.10107,1214
19.17724,1211
19.25341,1164
19.32958,1145
19.40574,1164
19.48191,1151
19.55808,1229
19.63425,1185
19.71042,1235
19.78659,1200
19.86276,1164
19.93893,1172
20.0151,1196
20.09127,1155
20.16743,1163
20.2436,1130
20.31977,1198
20.39594,1190
20.47211,1195
20.54828,1171
20.62445,1201
20.70062,1133
20.77679,1168
20.85296,1112
20.92912,1121
21.00529,1107
21.08146,1079
21.15763,1138
21.2338,1179
21.30997,1112
21.38614,1206
21.46231,1138
21.53848,1133
21.61465,1197
21.69081,1159
21.76698,1153
21.84315,1136
21.91932,1202
21.99549,1146
22.07166,1139
22.14783,1153
22.224,1118
22.30017,1098
22.37634,1171
22.4525,1103
22.52867,1062
22.60484,1141
22.68101,1162
22.75718,1143
22.83335,1084
22.90952,1098
22.98569,1120
23.06186,1086
23.13803,1128
23.21419,1134
23.29036,1104
23.36653,1045
23.4427,1078
23.51887,1122
23.59504,1095
23.67121,1028
23.74738,1094
23.82355,1094
23.89972,1139
23.97588,1079
24.05205,1092
24.12822,1064
24.20439,1079
24.28056,1049
24.35673,1094
24.4329,1052
24.50907,1129
24.58524,1121
24.66141,1097
24.73757,1152
24.81374,1136
24.88991,1125
24.96608,1058
25.04225,1068
25.11842,1095
25.19459,1124
25.27076,1101
25.34693,1082
25.4231,996
25.49926,1016
25.57543,1094
25.6516,1046
25.72777,1059
25.80394,1052
25.88011,1049
25.95628,998
26.03245,984
26.10862,984
26.18479,1013
26.26095,1034
26.33712,1054
26.41329,1034
26.48946,1031
26.56563,1048
26.6418,1028
26.71797,972
26.79414,1065
26.87031,1040
26.94648,1048
27.02264,1036
27.09881,1056
27.17498,1047
27.25115,1019
27.32732,993
27.40349,1059
27.47966,1060
27.55583,1038
27.632,1033
27.70817,1016
27.78433,1023
27.8605,1034
27.93667,1040
28.01284,1032
28.08901,999
28.16518,1080
28.24135,1059
28.31752,1112
28.39369,1063
28.46986,1093
28.54602,1012
28.62219,997
28.69836,1018
28.77453,1016
28.8507,1085
28.92687,1042
29.00304,1062
29.07921,1093
29.15538,1180
29.23155,1077
29.30771,1046
29.38388,1025
29.46005,1042
29.53622,1022
29.61239,1038
29.68856,1035
29.76473,1024
29.8409,1063
29.91707,1067
29.99324,1041
30.0694,1022
30.14557,1023
30.22174,1061
30.29791,1005
30.37408,1054
30.45025,990
30.52642,1069
30.60259,1074
30.67876,1070
30.75493,1068
30.83109,1067
30.90726,1054
30.98343,1060
31.0596,1006
31.13577,1023
31.21194,1071
31.28811,1034
31.36428,1073
31.44045,1001
31.51662,1066
31.59278,1065
31.66895,1024
31.74512,1021
31.82129,1037
31.89746,1113
31.97363,1032
32.0498,1018
32.12597,1070
32.20214,1009
32.27831,1008
32.35447,1053
32.43064,1023
32.50681,1038
32.58298,1016
32.65915,1084
32.73532,1060
32.81149,1043
32.88766,1068
32.96383,1053
33.04,1071
33.11616,1060
33.19233,1067
33.2685,1058
33.34467,1066
33.42084,1080
33.49701,1069
33.57318,1068
33.64935,1120
33.72552,975
33.80169,1055
33.87785,1084
33.95402,1113
34.03019,1097
34.10636,1121
34.18253,1039
34.2587,1173
34.33487,1115
34.41104,1095
34.48721,1100
34.56338,1026
34.63954,1121
34.71571,1125
34.79188,1122
34.86805,1089
34.94422,1148
35.02039,1107
35.09656,1135
35.17273,1149
35.2489,1100
35.32507,1154
35.40123,1130
35.4774,1166
35.55357,1160
35.62974,1122
35.70591,1190
35.78208,1169
35.85825,1187
35.93442,1204
36.01059,1253
36.08676,1255
36.16292,1231
36.23909,1237
36.31526,1244
36.39143,1271
36.4676,1259
36.54377,1287
36.61994,1298
36.69611,1274
36.77228,1353
36.84845,1360
36.92461,1322
37.00078,1446
37.07695,1518
37.15312,1591
37.22929,1614
37.30546,1806
37.38163,1838
37.4578,2039
37.53397,2231
37.61014,2418
37.6863,2644
37.76247,2977
37.83864,3377
37.91481,3793
37.99098,4241
38.06715,4274
38.14332,4525
38.21949,4381
38.29566,4070
38.37183,3826
38.44799,3436
38.52416,3131
38.60033,2785
38.6765,2744
38.75267,2431
38.82884,2350
38.90501,2117
38.98118,2039
39.05735,2009
39.13352,2054
39.20968,1964
39.28585,1897
39.36202,1951
39.43819,1926
39.51436,1873
39.59053,1881
39.6667,1871
39.74287,1844
39.81904,1829
39.89521,1851
39.97137,1905
40.04754,1954
40.12371,1935
40.19988,2016
40.27605,2094
40.35222,2059
40.42839,2109
40.50456,2125
40.58073,2266
40.6569,2360
40.73306,2476
40.80923,2619
40.8854,2678
40.96157,2760
41.03774,3089
41.11391,3293
41.19008,3557
41.26625,3800
41.34242,4062
41.41859,4338
41.49475,4472
41.57092,4732
41.64709,4561
41.72326,4733
41.79943,4675
41.8756,4511
41.95177,4430
42.02794,4112
42.10411,4108
42.18028,3873
42.25644,3778
42.33261,3886
42.40878,3918
42.48495,3888
42.56112,3804
42.63729,4029
42.71346,4285
42.78963,4735
42.8658,5068
42.94197,5625
43.01813,6255
43.0943,6935
43.17047,7848
43.24664,8863
43.32281,10057
43.39898,11174
43.47515,12175
43.55132,13013
43.62749,13563
43.70366,13751
43.77982,13246
43.85599,12470
43.93216,11201
44.00833,9976
44.0845,8599
44.16067,7701
44.23684,6672
44.31301,5867
44.38918,5100
44.46535,4599
44.54151,4077
44.61768,3651
44.69385,3370
44.77002,3088
44.84619,2805
44.92236,2670
44.99853,2423
45.0747,2300
45.15087,2261
45.22704,2122
45.3032,2013
45.37937,2006
45.45554,1887
45.53171,1874
45.60788,1807
45.68405,1769
45.76022,1685
45.83639,1691
45.91256,1658
45.98873,1686
46.06489,1580
46.14106,1576
46.21723,1572
46.2934,1526
46.36957,1531
46.44574,1527
46.52191,1494
46.59808,1527
46.67425,1461
46.75042,1439
46.82658,1459
46.90275,1364
46.97892,1407
47.05509,1345
47.13126,1346
47.20743,1401
47.2836,1345
47.35977,1317
47.43594,1305
47.51211,1338
47.58827,1304
47.66444,1323
47.74061,1256
47.81678,1266
47.89295,1247
47.96912,1241
48.04529,1214
48.12146,1290
48.19763,1207
48.2738,1252
48.34996,1235
48.42613,1157
48.5023,1200
48.57847,1171
48.65464,1184
48.73081,1139
48.80698,1191
48.88315,1248
48.95932,1201
49.03549,1195
49.11165,1215
49.18782,1207
49.26399,1103
49.34016,1143
49.41633,1130
49.4925,1163
49.56867,1197
49.64484,1149
49.72101,1122
49.79718,1176
49.87334,1190
49.94951,1188
50.02568,1155
50.10185,1061
50.17802,1139
50.25419,1096
50.33036,1221
50.40653,1134
50.4827,1098
50.55887,1145
50.63503,1123
50.7112,1095
50.78737,1124
50.86354,1171
50.93971,1108
51.01588,1149
51.09205,1072
51.16822,1068
51.24439,1095
51.32056,1137
51.39672,1187
51.47289,1121
51.54906,1092
51.62523,1153
51.7014,1100
51.77757,1147
51.85374,1115
51.92991,1147
52.00608,1045
52.08225,1120
52.15841,1075
52.23458,1125
52.31075,1127
52.38692,1081
52.46309,1164
52.53926,1131
52.61543,1129
52.6916,1171
52.76777,1100
52.84394,1119
52.9201,1097
52.99627,1131
53.07244,1093
53.14861,1126
53.22478,1102
53.30095,1061
53.37712,1111
53.45329,1162
53.52946,1087
53.60563,1171
53.68179,1087
53.75796,1143
53.83413,1082
53.9103,1117
53.98647,1093
54.06264,1222
54.13881,1123
54.21498,1074
54.29115,1154
54.36732,1151
54.44348,1147
54.51965,1171
54.59582,1198
54.67199,1133
54.74816,1140
54.82433,1173
54.9005,1225
54.97667,1181
55.05284,1080
55.12901,1125
55.20517,1209
55.28134,1242
55.35751,1214
55.43368,1216
55.50985,1163
55.58602,1215
55.66219,1215
55.73836,1227
55.81453,1241
55.8907,1338
55.96686,1301
56.04303,1382
56.1192,1374
56.19537,1345
56.27154,1301
56.34771,1429
56.42388,1433
56.50005,1514
56.57622,1559
56.65239,1470
56.72855,1566
56.80472,1581
56.88089,1644
56.95706,1631
57.03323,1799
57.1094,1839
57.18557,1903
57.26174,1940
57.33791,2045
57.41408,2150
57.49024,2236
57.56641,2361
57.64258,2457
57.71875,2493
57.79492,2448
57.87109,2568
57.94726,2459
58.02343,2456
58.0996,2444
58.17577,2376
58.25193,2309
58.3281,2124
58.40427,2071
58.48044,1972
58.55661,2011
58.63278,1889
58.70895,1775
58.78512,1682
58.86129,1679
58.93746,1635
59.01362,1577
59.08979,1528
59.16596,1528
59.24213,1481
59.3183,1501
59.39447,1470
59.47064,1441
59.54681,1396
59.62298,1449
59.69915,1451
59.77531,1424
59.85148,1388
59.92765,1368
60.00382,1300
60.07999,1317
60.15616,1381
60.23233,1350
60.3085,1313
60.38467,1277
60.46084,1317
60.537,1337
60.61317,1307
60.68934,1359
60.76551,1273
60.84168,1283
60.91785,1287
60.99402,1368
61.07019,1332
61.14636,1279
61.22253,1242
61.29869,1285
61.37486,1281
61.45103,1248
61.5272,1266
61.60337,1245
61.67954,1243
61.75571,1310
61.83188,1218
61.90805,1264
61.98422,1267
62.06038,1286
62.13655,1285
62.21272,1202
62.28889,1230
62.36506,1228
62.44123,1199
62.5174,1282
62.59357,1294
62.66974,1256
62.74591,1219
62.82207,1210
62.89824,1198
62.97441,1213
63.05058,1256
63.12675,1242
63.20292,1265
63.27909,1286
63.35526,1266
63.43143,1259
63.5076,1234
63.58376,1246
63.65993,1274
63.7361,1321
63.81227,1292
63.88844,1239
63.96461,1227
64.04078,1252
64.11695,1238
64.19312,1258
64.26929,1364
64.34545,1222
64.42162,1313
64.49779,1273
64.57396,1221
64.65013,1315
64.7263,1248
64.80247,1225
64.87864,1216
64.95481,1203
65.03098,1289
65.10714,1306
65.18331,1262
65.25948,1203
65.33565,1321
65.41182,1264
65.48799,1182
65.56416,1267
65.64033,1264
65.7165,1299
65.79267,1305
65.86883,1274
65.945,1275
66.02117,1254
66.09734,1212
66.17351,1283
66.24968,1231
66.32585,1303
66.40202,1266
66.47819,1318
66.55436,1290
66.63052,1261
66.70669,1299
66.78286,1295
66.85903,1323
66.9352,1376
67.01137,1305
67.08754,1325
67.16371,1310
67.23988,1434
67.31605,1375
67.39221,1445
67.46838,1478
67.54455,1377
67.62072,1527
67.69689,1494
67.77306,1510
67.84923,1632
67.9254,1632
68.00157,1583
68.07774,1689
68.1539,1788
68.23007,1890
68.30624,2048
68.38241,2118
68.45858,2282
68.53475,2553
68.61092,2722
68.68709,2961
68.76326,3084
68.83943,3468
68.91559,3634
68.99176,3737
69.06793,3766
69.1441,3743
69.22027,3581
69.29644,3383
69.37261,3328
69.44878,3133
69.52495,2845
69.60112,2622
69.67728,2413
69.75345,2265
69.82962,2176
69.90579,1952
69.98196,1798
70.05813,1872
70.1343,1703
70.21047,1642
70.28664,1569
70.36281,1512
70.43897,1539
70.51514,1530
70.59131,1388
70.66748,1362
70.74365,1350
70.81982,1458
70.89599,1323
70.97216,1333
71.04833,1314
71.1245,1297
71.20066,1284
71.27683,1255
71.353,1264
71.42917,1248
71.50534,1334
71.58151,1250
71.65768,1227
71.73385,1264
71.81002,1264
71.88619,1237
71.96235,1210
72.03852,1225
72.11469,1292
72.19086,1286
72.26703,1239
72.3432,1254
72.41937,1212
72.49554,1216
72.57171,1278
72.64788,1280
72.72404,1273
72.80021,1293
72.87638,1274
72.95255,1258
73.02872,1207
73.10489,1261
73.18106,1292
73.25723,1224
73.3334,1198
73.40957,1232
73.48573,1302
73.5619,1284
73.63807,1341
73.71424,1260
73.79041,1229
73.86658,1266
73.94275,1289
74.01892,1312
74.09509,1220
74.17126,1278
74.24742,1215
74.32359,1318
74.39976,1279
74.47593,1331
74.5521,1333
74.62827,1307
74.70444,1281
74.78061,1335
74.85678,1306
74.93295,1349
75.00911,1346
75.08528,1392
75.16145,1391
75.23762,1355
75.31379,1351
75.38996,1390
75.46613,1345
75.5423,1461
75.61847,1416
75.69464,1419
75.7708,1389
75.84697,1432
75.92314,1449
75.99931,1489
76.07548,1537
76.15165,1587
76.22782,1624
76.30399,1702
76.38016,1693
76.45633,1731
76.53249,1813
76.60866,1887
76.68483,1856
76.761,1986
76.83717,2091
76.91334,2077
76.98951,2212
77.06568,2293
77.14185,2372
77.21802,2445
77.29418,2565
77.37035,2772
77.44652,2753
77.52269,2827
77.59886,2942
77.67503,3004
77.7512,3028
77.82737,3008
77.90354,2972
77.97971,2910
78.05587,2908
78.13204,2775
78.20821,2722
78.28438,2592
78.36055,2448
78.43672,2385
78.51289,2227
78.58906,2173
78.66523,2098
78.7414,2014
78.81756,1942
78.89373,1882
78.9699,1788
79.04607,1733
79.12224,1766
79.19841,1675
79.27458,1650
79.35075,1627
79.42692,1587
79.50309,1618
79.57925,1575
79.65542,1582
79.73159,1543
79.80776,1578
79.88393,1554
79.9601,1472
80.03627,1481
80.11244,1449
80.18861,1537
80.26478,1439
80.34094,1443
80.41711,1442
80.49328,1394
80.56945,1443
80.64562,1501
80.72179,1459
80.79796,1520
80.87413,1571
80.9503,1564
81.02647,1511
81.10263,1604
81.1788,1640
81.25497,1685
81.33114,1741
81.40731,1669
81.48348,1827
81.55965,1796
81.63582,1797
81.71199,1780
81.78816,1840
81.86432,1887
81.94049,1889
82.01666,1892
82.09283,1883
82.169,1907
82.24517,1938
82.32134,1817
82.39751,1818
82.47368,1870
82.54985,1874
82.62601,1853
82.70218,1939
82.77835,2039
82.85452,1981
82.93069,2017
83.00686,2120
83.08303,2142
83.1592,2197
83.23537,2374
83.31154,2397
83.3877,2586
83.46387,2673
83.54004,2820
83.61621,2987
83.69238,3347
83.76855,3349
83.84472,3502
83.92089,3689
83.99706,3945
84.07323,3937
84.14939,4041
84.22556,4098
84.30173,4022
84.3779,3910
84.45407,3955
84.53024,3830
84.60641,3718
84.68258,3653
84.75875,3574
84.83492,3507
84.91108,3571
84.98725,3537
85.06342,3479
85.13959,3511
85.21576,3535
85.29193,3511
85.3681,3613
85.44427,3487
85.52044,3597
85.59661,3469
85.67277,3558
85.74894,3206
85.82511,3224
85.90128,2975
85.97745,2939
86.05362,2671
86.12979,2490
86.20596,2485
86.28213,2346
86.3583,2258
86.43446,2095
86.51063,1960
86.5868,1956
86.66297,1799
86.73914,1665
86.81531,1716
86.89148,1626
86.96765,1634
87.04382,1577
87.11999,1545
87.19615,1542
87.27232,1518
87.34849,1451
87.42466,1459
87.50083,1465
87.577,1394
87.65317,1350
87.72934,1351
87.80551,1307
87.88168,1345
87.95784,1292
88.03401,1214
88.11018,1286
88.18635,1297
88.26252,1295
88.33869,1308
88.41486,1251
88.49103,1271
88.5672,1285
88.64337,1280
88.71953,1255
88.7957,1270
88.87187,1294
88.94804,1263
89.02421,1221
89.10038,1209
89.17655,1126
89.25272,1242
89.32889,1177
89.40506,1211
89.48122,1209
89.55739,1228
89.63356,1215
89.70973,1185
89.7859,1241
89.86207,1275
89.93824,1264
89.97632,1258